subject,trial,pTrue,nCoins,nHeads,coinKnown,pQuestion,choice,rt
1,1,60,2,1,1,40,1,2.7877
1,2,60,10,4,1,80,0,3.1659
1,3,40,2,0,1,40,1,2.7616
1,4,80,10,6,1,80,0,4.9161
1,5,40,4,0,1,40,0,2.2383
1,6,60,4,2,1,80,0,3.2385
1,7,80,6,4,1,60,1,4.8158
1,8,60,4,3,1,80,1,2.2949
1,9,80,8,5,1,80,1,3.7496
1,10,60,6,3,1,60,1,3.7986
1,11,20,2,2,1,40,0,3.0557
1,12,40,4,2,1,60,1,4.8384
1,13,80,2,2,1,60,1,2.8834
1,14,20,8,0,1,20,1,3.3288
1,15,60,4,3,1,60,1,4.3652
1,16,40,2,0,1,60,0,2.6937
1,17,60,6,4,1,60,1,4.6434
1,18,60,10,5,1,80,0,4.4288
1,19,80,4,3,1,60,1,3.9356
1,20,80,8,5,1,60,1,2.1222
1,21,80,10,9,1,60,NaN,0
1,22,60,2,2,1,60,1,1.6988
1,23,60,8,3,1,60,0,4.2716
1,24,20,6,0,1,20,0,2.4098
1,25,80,2,1,1,60,0,4.2191
1,26,60,2,2,1,60,1,1.4867
1,27,40,10,4,1,20,0,3.5591
1,28,20,8,3,1,40,1,2.8882
1,29,60,8,5,1,60,1,3.1508
1,30,20,10,1,1,20,0,1.7384
1,31,20,6,1,1,40,0,2.0878
1,32,60,10,5,1,60,1,3.9058
1,33,60,4,3,1,60,1,1.6759
1,34,80,2,2,1,80,1,1.2521
1,35,80,4,4,1,60,0,2.5894
1,36,80,4,3,1,80,1,1.4798
1,37,60,10,6,1,60,1,3.4758
1,38,20,10,1,1,20,0,1.9751
1,39,20,2,0,1,20,1,1.4723
1,40,40,8,3,1,60,1,3.4323
1,41,20,4,0,1,40,0,2.9725
1,42,60,6,5,1,60,1,3.2675
1,43,40,6,1,1,40,0,1.9489
1,44,80,10,8,1,60,1,3.4014
1,45,60,8,3,1,40,0,3.0742
1,46,80,6,4,1,80,1,1.8625
1,47,60,6,5,1,40,0,2.9568
1,48,80,6,5,1,80,1,2.5111
1,49,20,8,4,1,40,0,3.4411
1,50,40,2,1,1,60,1,2.2577
1,51,60,6,3,1,80,0,3.1298
1,52,20,4,1,1,20,1,1.786
1,53,60,10,6,1,60,1,3.4827
1,54,20,6,1,1,40,0,3.8982
1,55,20,10,1,1,20,1,2.1525
1,56,80,4,4,1,80,1,1.7944
1,57,60,4,3,1,80,0,3.8696
1,58,20,2,0,1,20,1,3.1858
1,59,20,2,0,1,20,1,2.8193
1,60,20,10,1,1,40,0,2.6264
1,61,60,4,2,1,60,1,3.0052
1,62,60,6,6,1,60,0,2.4581
1,63,80,2,2,1,60,0,3.1357
1,64,40,4,2,1,40,1,2.9396
1,65,20,8,0,1,40,0,2.8652
1,66,20,8,3,1,40,1,3.7385
1,67,40,10,3,1,40,0,4.544
1,68,60,8,4,1,40,1,3.4338
1,69,60,6,5,1,40,1,1.7717
1,70,80,10,9,1,80,1,2.1026
1,71,20,10,1,1,20,0,2.9665
1,72,80,10,8,1,80,1,1.9176
1,73,80,8,5,1,60,1,2.5685
1,74,60,8,6,1,40,NaN,0
1,75,80,10,7,1,60,1,3.1738
1,76,40,10,1,1,40,0,3.2412
1,77,60,2,0,1,60,0,1.9417
1,78,40,4,2,1,20,0,3.4667
1,79,40,8,4,1,60,1,3.3267
1,80,20,4,0,1,20,0,3.4265
1,81,20,2,1,1,20,0,1.6932
1,82,40,6,2,1,20,1,3.029
1,83,80,8,6,1,60,1,2.7974
1,84,40,6,1,1,60,0,2.8164
1,85,20,6,0,1,40,0,3.909
1,86,40,2,2,1,40,0,2.3954
1,87,80,10,10,1,80,1,1.7188
1,88,40,8,2,1,60,0,2.4669
1,89,40,6,2,1,20,1,2.3806
1,90,40,8,3,1,40,1,3.8484
1,91,80,6,6,1,80,1,2.201
1,92,80,6,5,1,80,1,1.9791
1,93,40,10,4,1,60,1,3.2163
1,94,20,4,2,1,20,0,4.1401
1,95,80,4,2,1,80,0,3.744
1,96,20,6,3,1,40,0,4.3221
1,97,40,6,3,1,40,1,2.495
1,98,40,10,4,1,40,NaN,0
1,99,20,2,0,1,40,0,1.1785
1,100,20,4,1,1,40,0,4.1335
1,101,60,2,2,1,80,1,1.3315
1,102,20,8,0,1,40,0,2.1416
1,103,40,6,4,1,40,0,4.7482
1,104,80,6,6,1,60,0,3.9897
1,105,40,4,1,1,40,1,2.334
1,106,60,8,7,1,60,1,3.3082
1,107,60,2,0,1,80,0,2.403
1,108,80,4,4,1,60,0,2.1123
1,109,60,8,5,1,60,1,3.4728
1,110,60,6,4,1,60,1,1.7828
1,111,80,4,2,1,60,1,3.5299
1,112,20,8,1,1,20,1,4.0417
1,113,40,8,3,1,40,1,4.394
1,114,20,4,0,1,20,1,1.6073
1,115,40,4,1,1,20,1,4.2142
1,116,80,6,5,1,80,1,1.7754
1,117,20,10,1,1,20,1,2.3744
1,118,40,8,3,1,20,0,4.6681
1,119,20,6,2,1,20,1,4.2151
1,120,80,2,2,1,60,1,1.4467
1,121,40,6,3,1,20,0,2.7333
1,122,40,10,5,1,20,0,3.5827
1,123,60,10,6,1,80,0,2.4917
1,124,40,4,1,1,40,0,2.0346
1,125,20,4,1,1,40,0,1.5194
1,126,80,8,8,1,60,1,0.96473
1,127,40,2,1,1,20,0,2.1145
1,128,20,6,1,1,40,0,3.7609
1,129,60,10,7,1,40,0,2.0479
1,130,40,8,4,1,20,0,1.6551
1,131,20,6,0,1,40,0,1.9879
1,132,40,10,5,1,60,1,4.3669
1,133,60,4,3,1,60,1,1.4782
1,134,20,2,0,1,40,1,2.0757
1,135,60,2,1,1,60,1,1.4227
1,136,60,4,2,1,40,1,3.4217
1,137,40,10,5,1,40,0,3.1421
1,138,80,2,2,1,80,1,1.2664
1,139,20,8,0,1,20,1,3.5405
1,140,80,8,5,1,80,0,3.6673
1,141,80,8,6,1,80,1,3.6982
1,142,80,2,1,1,80,0,3.0565
1,143,80,2,2,1,80,1,2.4497
1,144,60,2,0,1,40,1,4.9706
1,145,40,8,4,1,40,1,3.4439
1,146,80,6,4,1,60,1,3.1438
1,147,20,10,1,1,40,0,3.5682
1,148,80,8,8,1,60,0,1.8572
1,149,40,2,1,1,40,1,1.7151
1,150,20,10,4,1,40,NaN,0
1,151,80,4,2,1,60,1,2.8104
1,152,40,4,2,1,40,NaN,0
1,153,40,2,1,1,40,0,0.95303
1,154,40,6,2,1,40,1,2.747
1,155,60,8,4,1,40,NaN,0
1,156,20,4,0,1,20,1,1.4935
1,157,40,2,2,1,60,0,2.0099
1,158,60,10,7,1,80,1,4.224
1,159,20,2,2,1,20,0,1.8489
1,160,80,10,8,1,80,1,2.0814
1,161,40,2,2,0,40,0,2.4843
1,162,40,4,1,0,20,1,2.5219
1,163,80,4,2,0,80,0,2.8724
1,164,60,10,3,0,40,1,4.2872
1,165,40,10,8,0,20,0,1.8946
1,166,60,2,1,0,60,1,1.9206
1,167,80,8,5,0,60,1,4.7756
1,168,40,8,5,0,40,1,4.2532
1,169,80,10,8,0,60,1,3.3007
1,170,40,10,6,0,40,0,4.6552
1,171,60,10,6,0,40,0,4.1511
1,172,60,8,5,0,60,1,3.4142
1,173,60,2,1,0,60,1,1.6563
1,174,40,2,1,0,60,1,1.9143
1,175,40,4,2,0,20,0,2.6397
1,176,40,8,3,0,40,1,4.1359
1,177,80,10,9,0,60,1,3.0705
1,178,20,10,3,0,20,0,1.8523
1,179,40,6,4,0,60,NaN,0
1,180,40,6,3,0,40,1,3.6889
1,181,20,4,0,0,20,0,1.6532
1,182,20,4,1,0,20,1,1.4332
1,183,40,2,0,0,40,0,1.7278
1,184,40,10,5,0,20,0,4.405
1,185,80,4,3,0,80,1,1.4881
1,186,20,8,1,0,40,0,2.2034
1,187,80,10,8,0,80,1,2.189
1,188,60,10,7,0,60,1,1.8164
1,189,80,8,8,0,80,1,1.5567
1,190,20,10,1,0,20,1,2.6477
1,191,80,4,2,0,60,1,2.0402
1,192,80,4,4,0,80,1,1.0206
1,193,80,6,4,0,60,1,2.8148
1,194,20,4,1,0,40,1,2.4652
1,195,20,8,0,0,20,1,2.3958
1,196,80,2,1,0,80,0,1.395
1,197,20,10,2,0,40,0,3.152
1,198,20,4,0,0,40,0,3.1462
1,199,20,2,0,0,40,0,2.9987
1,200,60,4,4,0,60,1,2.6771
1,201,60,4,4,0,40,0,2.7152
1,202,20,8,1,0,40,0,1.9679
1,203,60,6,2,0,80,0,1.2907
1,204,80,6,5,0,60,1,1.7201
1,205,20,10,2,0,20,1,1.7953
1,206,60,6,4,0,80,1,1.3288
1,207,60,8,6,0,60,NaN,0
1,208,20,4,2,0,40,1,2.2001
1,209,40,2,2,0,40,0,2.7737
1,210,40,10,6,0,40,1,2.6856
1,211,20,2,1,0,40,1,1.8047
1,212,60,6,6,0,80,1,1.2865
1,213,80,6,5,0,80,1,1.5965
1,214,80,6,6,0,60,0,2.115
1,215,40,6,2,0,40,1,2.6152
1,216,60,2,2,0,60,1,1.2989
1,217,80,8,7,0,80,1,1.6738
1,218,40,4,1,0,40,1,3.6663
1,219,80,6,5,0,80,1,1.9502
1,220,20,10,3,0,20,0,2.9351
1,221,40,10,6,0,20,0,2.8197
1,222,40,6,3,0,60,1,1.5494
1,223,20,6,2,0,20,0,3.1358
1,224,40,10,2,0,40,0,1.7032
1,225,40,2,1,0,40,1,1.2937
1,226,60,4,3,0,80,1,1.9671
1,227,60,8,4,0,60,1,4.9249
1,228,20,8,3,0,20,0,3.3675
1,229,80,10,7,0,60,1,3.1729
1,230,60,2,1,0,60,0,1.9493
1,231,60,6,3,0,80,0,2.4588
1,232,60,4,2,0,40,1,2.5022
1,233,40,6,0,0,60,0,1.557
1,234,40,8,2,0,20,1,2.9206
1,235,20,10,3,0,20,1,2.6261
1,236,60,4,3,0,60,1,1.3624
1,237,60,8,4,0,60,0,2.5204
1,238,20,6,1,0,40,0,1.6506
1,239,40,8,4,0,60,1,3.1845
1,240,60,8,7,0,40,0,1.5267
1,241,40,4,3,0,60,1,2.1383
1,242,60,2,2,0,60,1,2.2173
1,243,20,4,0,0,40,0,1.236
1,244,40,4,2,0,20,0,1.458
1,245,60,10,6,0,60,1,1.9967
1,246,80,6,5,0,60,1,1.8646
1,247,80,8,6,0,80,1,1.9204
1,248,40,8,3,0,40,1,2.8426
1,249,60,8,3,0,60,0,3.9285
1,250,60,6,4,0,80,1,2.7241
1,251,20,8,0,0,40,0,3.0037
1,252,60,2,2,0,60,1,2.9019
1,253,60,6,3,0,40,0,3.9296
1,254,80,4,3,0,60,1,1.7729
1,255,40,6,1,0,20,1,3.5297
1,256,40,8,4,0,60,1,2.9477
1,257,40,4,3,0,60,1,2.4183
1,258,80,10,9,0,80,1,2.3127
1,259,80,8,5,0,60,1,3.6608
1,260,20,2,0,0,20,1,1.7859
1,261,20,6,1,0,20,1,1.862
1,262,60,10,6,0,80,0,2.8432
1,263,20,10,4,0,20,0,3.7176
1,264,60,4,2,0,40,0,4.8413
1,265,20,8,1,0,20,1,2.5116
1,266,20,6,2,0,40,0,4.3393
1,267,20,4,2,0,20,0,3.3426
1,268,40,2,0,0,20,0,1.3324
1,269,80,2,2,0,60,0,1.5734
1,270,40,10,4,0,60,NaN,0
1,271,80,8,7,0,80,1,2.0639
1,272,20,6,2,0,40,1,1.9894
1,273,40,8,5,0,40,0,2.28
1,274,20,2,0,0,40,0,1.9314
1,275,60,10,8,0,40,0,1.8729
1,276,60,6,6,0,60,0,1.9365
1,277,40,6,2,0,40,1,1.7607
1,278,20,8,3,0,40,1,1.8696
1,279,80,6,5,0,80,1,2.0359
1,280,20,6,2,0,40,1,4.3217
1,281,40,8,5,0,20,NaN,0
1,282,40,6,3,0,40,1,2.1586
1,283,80,2,2,0,60,1,1.6772
1,284,60,6,4,0,60,1,2.1824
1,285,80,4,3,0,80,1,2.1067
1,286,20,2,1,0,40,1,1.9719
1,287,20,10,1,0,40,0,2.785
1,288,80,8,5,0,80,0,3.1924
1,289,40,4,1,0,40,0,3.1675
1,290,60,4,2,0,60,0,3.2109
1,291,20,8,1,0,20,1,3.8845
1,292,80,10,10,0,60,0,1.6523
1,293,60,10,8,0,40,1,3.0005
1,294,20,2,0,0,40,0,1.2261
1,295,80,10,8,0,80,1,1.8608
1,296,40,2,1,0,60,1,1.9091
1,297,20,4,0,0,20,1,1.948
1,298,20,6,1,0,20,1,2.3651
1,299,80,2,1,0,60,1,1.5719
1,300,60,8,6,0,60,1,3.1055
1,301,60,2,2,0,40,0,2.0272
1,302,80,10,7,0,80,0,4.0148
1,303,80,2,2,0,60,0,2.5426
1,304,80,2,2,0,60,1,1.4581
1,305,20,2,0,0,40,1,2.5758
1,306,80,4,3,0,80,1,1.8219
1,307,20,2,0,0,20,1,1.0345
1,308,80,2,2,0,80,1,1.3978
1,309,60,10,8,0,80,1,1.1703
1,310,80,2,2,0,80,1,0.91023
1,311,60,2,1,0,80,0,1.1683
1,312,60,8,4,0,60,1,2.6863
1,313,60,4,1,0,80,0,1.3684
1,314,80,8,6,0,60,1,3.2286
1,315,80,6,5,0,60,0,3.2611
1,316,20,6,0,0,20,1,1.4405
1,317,40,4,1,0,40,1,3.2988
1,318,40,10,5,0,40,1,3.1888
1,319,80,4,4,0,60,0,1.9746
1,320,40,2,1,0,40,1,1.0763
2,1,80,6,5,1,60,NaN,0
2,2,40,4,2,1,20,0,2.351
2,3,40,8,1,1,60,0,3.333
2,4,20,2,1,1,20,0,4.4465
2,5,40,4,3,1,60,1,3.0136
2,6,40,10,8,1,40,0,4.6215
2,7,20,10,1,1,20,0,3.4547
2,8,80,4,3,1,80,1,4.4172
2,9,40,2,1,1,40,0,2.1472
2,10,60,10,7,1,40,0,4.2608
2,11,40,10,3,1,60,NaN,0
2,12,80,8,6,1,60,0,4.8736
2,13,80,6,4,1,60,0,3.2723
2,14,20,8,2,1,20,1,3.8684
2,15,20,10,5,1,20,NaN,0
2,16,80,4,3,1,80,1,2.8072
2,17,80,10,8,1,60,0,4.0269
2,18,20,2,0,1,40,1,1.7146
2,19,40,8,4,1,40,NaN,0
2,20,20,6,2,1,40,0,3.6851
2,21,60,6,2,1,60,1,3.8079
2,22,20,8,2,1,20,0,4.5215
2,23,20,4,0,1,40,0,3.4473
2,24,80,10,4,1,80,NaN,0
2,25,60,4,2,1,60,0,2.6855
2,26,80,4,4,1,60,0,1.9457
2,27,60,2,1,1,60,1,2.6836
2,28,20,2,0,1,40,1,2.6551
2,29,40,2,0,1,40,0,3.2214
2,30,40,2,1,1,60,0,2.227
2,31,80,8,6,1,80,1,4.6666
2,32,40,2,2,1,20,1,1.9945
2,33,40,6,1,1,40,0,2.7964
2,34,20,6,0,1,40,0,3.0724
2,35,60,4,3,1,60,1,2.6894
2,36,60,8,4,1,60,0,4.1581
2,37,40,4,1,1,20,1,2.87
2,38,20,8,2,1,20,NaN,0
2,39,80,4,3,1,60,1,3.5657
2,40,60,8,3,1,60,NaN,0
2,41,20,6,0,1,40,0,2.8574
2,42,60,2,1,1,40,0,1.458
2,43,60,10,6,1,60,0,3.1647
2,44,40,2,1,1,40,0,2.0408
2,45,80,4,3,1,60,1,1.9332
2,46,60,2,1,1,60,0,1.9307
2,47,20,10,3,1,20,1,4.6241
2,48,60,2,1,1,60,0,2.2607
2,49,60,8,6,1,80,1,3.8198
2,50,20,8,0,1,40,0,2.6583
2,51,80,2,0,1,60,0,1.1177
2,52,80,2,2,1,60,0,1.0597
2,53,20,4,0,1,20,0,1.6542
2,54,40,2,1,1,60,0,4.6378
2,55,60,6,3,1,80,0,2.4507
2,56,80,4,2,1,80,0,2.8255
2,57,80,2,2,1,60,0,2.4319
2,58,20,8,0,1,20,0,3.2411
2,59,20,4,0,1,40,0,2.0234
2,60,20,2,0,1,20,0,1.6096
2,61,20,2,0,1,20,0,1.1096
2,62,60,6,3,1,80,0,4.1285
2,63,60,6,4,1,60,1,3.9814
2,64,40,8,1,1,20,1,3.9996
2,65,80,4,3,1,80,1,4.0589
2,66,80,8,6,1,80,1,3.8565
2,67,20,10,4,1,40,1,4.2823
2,68,80,10,7,1,80,NaN,0
2,69,40,8,4,1,40,0,4.9921
2,70,80,10,8,1,60,1,4.078
2,71,80,10,8,1,80,1,3.674
2,72,60,8,3,1,60,1,4.2527
2,73,80,8,8,1,80,1,3.7088
2,74,20,4,2,1,40,1,2.4955
2,75,60,6,6,1,80,1,2.5903
2,76,60,6,3,1,40,NaN,0
2,77,40,6,4,1,40,1,2.9285
2,78,60,4,0,1,60,0,2.8458
2,79,20,8,2,1,40,1,4.1064
2,80,60,2,2,1,80,1,2.5994
2,81,80,8,7,1,80,1,1.8111
2,82,60,6,5,1,60,1,2.3492
2,83,40,2,1,1,40,1,2.4045
2,84,80,2,2,1,60,0,1.7602
2,85,20,4,0,1,40,0,2.9961
2,86,60,8,4,1,60,1,2.4429
2,87,60,10,8,1,60,1,3.7106
2,88,80,4,3,1,60,1,2.1524
2,89,40,2,0,1,40,1,2.1268
2,90,80,2,1,1,80,0,1.7384
2,91,80,2,2,1,60,1,2.5218
2,92,20,4,0,1,40,0,2.4468
2,93,40,6,3,1,40,1,4.732
2,94,40,8,4,1,60,0,4.0744
2,95,60,4,3,1,80,1,3.4742
2,96,60,10,5,1,40,NaN,0
2,97,20,6,0,1,40,0,4.2278
2,98,40,4,1,1,60,0,2.8815
2,99,40,10,8,1,60,1,3.1097
2,100,40,10,0,1,40,1,2.8984
2,101,80,6,6,1,80,1,2.7484
2,102,80,6,3,1,80,0,3.9209
2,103,40,6,1,1,40,1,3.5391
2,104,40,8,2,1,20,1,4.2013
2,105,20,10,2,1,40,1,4.7179
2,106,80,6,4,1,80,1,3.4631
2,107,20,8,2,1,20,1,4.4203
2,108,60,10,5,1,40,NaN,0
2,109,60,2,1,1,60,1,2.7758
2,110,40,8,2,1,40,1,4.6359
2,111,40,6,3,1,60,0,3.3388
2,112,60,6,4,1,40,0,4.4833
2,113,40,4,3,1,20,0,3.2481
2,114,40,6,1,1,40,0,3.9502
2,115,60,10,6,1,60,0,2.7997
2,116,20,8,1,1,40,1,3.8733
2,117,20,10,2,1,20,1,4.0379
2,118,80,2,2,1,80,1,2.6725
2,119,80,8,7,1,80,1,3.8292
2,120,20,2,1,1,20,0,2.2901
2,121,60,10,6,1,80,0,2.987
2,122,40,4,4,1,20,0,3.3111
2,123,60,4,2,1,40,1,2.2321
2,124,80,10,9,1,60,0,4.7326
2,125,60,2,1,1,60,1,3.2148
2,126,80,6,6,1,80,1,2.4656
2,127,60,4,2,1,40,1,3.2451
2,128,40,6,2,1,40,1,2.6405
2,129,60,4,3,1,40,0,2.1975
2,130,80,6,4,1,80,1,3.6047
2,131,20,10,2,1,40,1,3.4783
2,132,40,10,3,1,20,1,1.6173
2,133,60,10,6,1,40,0,4.0483
2,134,20,2,2,1,40,0,2.6109
2,135,20,4,2,1,20,0,4.0558
2,136,20,6,3,1,40,1,3.2788
2,137,80,2,2,1,60,0,2.9821
2,138,40,10,7,1,60,1,4.2546
2,139,20,6,1,1,20,1,4.0617
2,140,20,6,0,1,40,0,2.8632
2,141,60,8,8,1,80,1,2.446
2,142,80,8,7,1,60,NaN,0
2,143,40,10,3,1,20,1,2.0766
2,144,40,4,2,1,40,1,2.8636
2,145,80,8,5,1,80,1,3.0257
2,146,20,10,0,1,20,1,2.8618
2,147,40,4,2,1,40,1,4.3944
2,148,80,10,9,1,60,1,3.1625
2,149,60,8,3,1,60,0,3.6069
2,150,20,6,0,1,20,1,3.4056
2,151,80,6,5,1,60,1,4.0377
2,152,40,6,3,1,40,1,3.3567
2,153,20,2,0,1,20,1,1.9224
2,154,40,10,6,1,40,0,3.5441
2,155,60,8,2,1,80,1,3.339
2,156,60,2,1,1,80,0,2.8222
2,157,80,10,9,1,60,1,2.2735
2,158,20,4,1,1,20,1,2.1647
2,159,40,8,2,1,20,1,2.1797
2,160,60,4,4,1,60,1,2.5054
2,161,80,6,4,0,60,1,3.4122
2,162,20,6,0,0,20,1,2.3287
2,163,20,10,2,0,40,0,3.0343
2,164,20,2,0,0,20,1,1.46
2,165,80,2,2,0,60,1,1.6627
2,166,40,6,3,0,60,0,2.5558
2,167,40,2,1,0,40,1,2.1351
2,168,40,10,2,0,60,0,3.4848
2,169,40,6,2,0,40,1,4.7506
2,170,20,8,0,0,20,1,3.4167
2,171,20,8,2,0,40,1,3.5305
2,172,60,8,2,0,60,0,4.064
2,173,40,6,3,0,40,0,4.3765
2,174,80,6,4,0,80,1,3.5095
2,175,20,4,0,0,40,NaN,0
2,176,80,8,6,0,80,1,3.6564
2,177,60,4,3,0,40,0,3.2868
2,178,40,4,3,0,40,0,3.7135
2,179,80,2,1,0,60,1,1.6538
2,180,80,8,7,0,80,1,3.6373
2,181,20,4,2,0,20,1,2.8003
2,182,20,6,1,0,20,1,3.8303
2,183,20,2,1,0,20,0,2.2703
2,184,80,8,8,0,80,1,3.029
2,185,40,4,2,0,60,1,2.7368
2,186,20,8,0,0,40,0,3.5562
2,187,20,8,1,0,40,NaN,0
2,188,60,6,4,0,60,1,3.0927
2,189,80,10,8,0,60,1,3.5672
2,190,40,10,6,0,40,1,3.4629
2,191,40,6,4,0,20,0,2.7085
2,192,80,4,3,0,80,0,2.464
2,193,60,4,3,0,80,1,1.7208
2,194,40,8,4,0,40,0,4.1715
2,195,20,8,0,0,40,0,3.7042
2,196,20,10,2,0,40,1,3.2561
2,197,40,10,5,0,40,1,4.152
2,198,40,8,3,0,60,1,4.2515
2,199,60,8,4,0,60,1,4.9312
2,200,60,10,5,0,60,0,4.1174
2,201,40,10,4,0,20,1,3.5477
2,202,40,8,5,0,20,0,2.7463
2,203,40,10,3,0,40,1,4.3266
2,204,80,6,4,0,80,1,3.726
2,205,60,4,0,0,80,0,3.6868
2,206,60,2,1,0,80,0,1.8046
2,207,60,8,5,0,60,1,4.7201
2,208,80,10,5,0,80,0,3.6882
2,209,60,4,2,0,60,1,2.6197
2,210,60,6,3,0,80,NaN,0
2,211,80,10,9,0,80,1,2.5301
2,212,60,6,4,0,60,1,3.6375
2,213,20,6,2,0,20,1,3.8174
2,214,40,2,1,0,20,0,1.9782
2,215,40,2,1,0,60,1,1.7711
2,216,60,8,5,0,80,1,4.0172
2,217,60,2,1,0,40,NaN,0
2,218,20,6,1,0,20,1,2.1218
2,219,40,2,1,0,40,1,2.9832
2,220,80,4,4,0,80,1,2.7898
2,221,40,8,2,0,60,0,3.7254
2,222,80,8,6,0,60,1,4.4603
2,223,40,6,2,0,40,0,3.966
2,224,40,4,3,0,20,0,2.3153
2,225,80,10,8,0,80,1,2.0835
2,226,20,4,0,0,40,0,3.4261
2,227,40,8,2,0,60,0,2.9809
2,228,40,4,2,0,60,1,2.8407
2,229,40,4,3,0,20,0,4.004
2,230,80,2,2,0,80,1,1.8192
2,231,60,10,9,0,60,1,3.3977
2,232,80,2,2,0,60,1,1.2302
2,233,80,6,5,0,60,1,4.14
2,234,80,6,5,0,60,1,4.8266
2,235,20,8,0,0,20,1,1.8566
2,236,60,4,2,0,40,NaN,0
2,237,60,6,2,0,60,0,3.1925
2,238,80,8,7,0,80,1,4.3038
2,239,60,6,2,0,60,1,4.227
2,240,20,2,0,0,20,1,2.9599
2,241,60,8,6,0,80,1,2.3425
2,242,20,8,2,0,40,1,3.1034
2,243,40,8,3,0,20,1,4.6986
2,244,40,10,5,0,40,1,3.9518
2,245,20,10,1,0,40,0,2.7273
2,246,20,4,1,0,20,1,3.1158
2,247,80,6,6,0,80,1,3.4944
2,248,40,8,5,0,20,0,3.9549
2,249,20,4,0,0,20,0,2.1176
2,250,40,2,1,0,40,1,2.0508
2,251,60,2,1,0,80,1,2.7808
2,252,60,2,2,0,40,1,2.6893
2,253,20,6,3,0,20,0,4.1695
2,254,80,4,4,0,60,1,2.9271
2,255,20,6,0,0,20,1,1.8032
2,256,80,4,3,0,80,0,2.4247
2,257,40,2,0,0,40,1,1.6523
2,258,60,10,8,0,60,1,2.4643
2,259,20,10,1,0,40,0,1.5343
2,260,60,10,6,0,80,1,3.3699
2,261,80,4,3,0,60,1,2.3581
2,262,40,6,1,0,40,1,2.518
2,263,60,4,3,0,60,1,3.6428
2,264,40,2,1,0,20,0,1.6873
2,265,60,10,7,0,60,1,3.8239
2,266,40,10,5,0,40,0,4.9394
2,267,60,2,1,0,60,0,2.5996
2,268,80,2,2,0,80,1,1.491
2,269,40,4,4,0,60,1,1.4447
2,270,20,2,1,0,40,1,1.8714
2,271,80,4,3,0,80,1,3.1444
2,272,80,8,6,0,60,1,3.005
2,273,60,10,7,0,40,NaN,0
2,274,20,2,0,0,20,1,1.9559
2,275,60,6,4,0,40,0,3.4243
2,276,20,10,1,0,20,1,1.9195
2,277,80,10,6,0,60,1,2.5494
2,278,80,4,4,0,80,1,1.3071
2,279,60,10,5,0,60,1,3.2158
2,280,60,2,1,0,40,1,1.9106
2,281,60,8,2,0,80,0,2.5681
2,282,80,8,7,0,60,1,2.0646
2,283,20,10,3,0,40,1,3.8094
2,284,20,6,3,0,20,0,2.0965
2,285,40,6,0,0,40,1,2.3343
2,286,60,6,5,0,40,0,2.5355
2,287,40,4,2,0,40,0,2.3773
2,288,20,10,4,0,40,1,4.5765
2,289,60,2,2,0,60,1,1.2749
2,290,80,10,4,0,60,1,3.2399
2,291,80,2,1,0,60,1,2.0213
2,292,20,8,2,0,40,1,2.9769
2,293,20,2,0,0,20,1,1.5933
2,294,20,2,0,0,20,1,2.4868
2,295,60,6,3,0,60,1,2.1163
2,296,40,6,2,0,40,1,2.4358
2,297,60,4,2,0,40,1,1.3962
2,298,60,4,2,0,40,1,1.7853
2,299,20,10,2,0,40,1,3.6387
2,300,80,2,2,0,60,1,2.2755
2,301,60,2,0,0,60,0,3.3103
2,302,80,6,5,0,80,1,2.652
2,303,60,8,4,0,60,0,4.5826
2,304,20,2,1,0,40,1,1.2445
2,305,20,6,1,0,40,NaN,0
2,306,80,10,8,0,80,1,4.0903
2,307,20,4,0,0,40,1,3.4142
2,308,80,6,6,0,60,0,1.4623
2,309,40,4,3,0,60,1,2.9659
2,310,60,10,7,0,60,1,4.7768
2,311,40,8,2,0,20,1,4.5373
2,312,80,10,7,0,60,1,4.3125
2,313,80,8,6,0,60,1,2.2734
2,314,20,4,0,0,40,1,2.5168
2,315,40,2,1,0,40,1,2.112
2,316,80,4,3,0,80,1,2.0385
2,317,60,8,2,0,80,0,3.332
2,318,80,2,2,0,60,1,2.2776
2,319,20,4,0,0,20,1,2.768
2,320,40,10,2,0,40,1,2.3018
3,1,80,2,2,1,60,NaN,0
3,2,80,8,7,1,80,1,3.9653
3,3,40,6,4,1,40,0,4.3912
3,4,80,8,7,1,80,1,4.8615
3,5,80,6,4,1,60,1,2.6217
3,6,60,4,1,1,60,0,2.8976
3,7,80,10,8,1,60,0,3.2602
3,8,20,4,2,1,40,1,2.8319
3,9,60,4,2,1,60,1,2.5141
3,10,40,2,1,1,60,1,2.0411
3,11,80,10,9,1,60,0,4.9159
3,12,20,4,1,1,40,1,4.9997
3,13,20,8,2,1,20,NaN,0
3,14,40,10,5,1,40,1,3.7894
3,15,40,4,1,1,40,1,2.6105
3,16,20,10,2,1,40,0,3.7327
3,17,80,10,8,1,80,1,3.2154
3,18,60,8,3,1,80,0,3.6878
3,19,80,2,1,1,60,1,2.5547
3,20,40,6,3,1,60,1,3.2267
3,21,80,2,1,1,80,1,2.8936
3,22,60,10,5,1,80,0,2.6958
3,23,20,2,1,1,40,1,3.2211
3,24,40,2,1,1,40,1,2.8253
3,25,60,2,2,1,60,1,3.4514
3,26,60,2,2,1,40,0,2.4799
3,27,40,6,1,1,40,0,2.6086
3,28,20,4,0,1,40,0,1.914
3,29,80,10,9,1,80,1,2.0597
3,30,60,4,3,1,60,1,2.4728
3,31,60,8,6,1,60,1,3.0534
3,32,20,4,0,1,20,1,2.4125
3,33,80,4,3,1,60,1,2.1384
3,34,80,10,8,1,80,1,2.5787
3,35,20,8,1,1,40,0,3.8384
3,36,20,2,1,1,40,1,1.4351
3,37,40,6,3,1,40,1,3.4909
3,38,20,2,0,1,20,1,2.2754
3,39,20,2,2,1,20,0,1.758
3,40,60,4,3,1,60,1,1.7936
3,41,80,4,4,1,60,0,2.4428
3,42,40,6,2,1,40,0,3.2772
3,43,20,2,0,1,20,0,3.0499
3,44,40,10,5,1,20,1,3.5905
3,45,40,2,0,1,40,0,2.6739
3,46,20,6,1,1,40,0,3.3778
3,47,20,2,1,1,20,0,1.6677
3,48,80,4,2,1,80,0,2.4738
3,49,40,4,1,1,20,1,2.9304
3,50,40,2,1,1,40,1,1.5577
3,51,80,6,5,1,60,1,2.9093
3,52,60,8,5,1,80,1,2.675
3,53,20,10,1,1,20,1,2.1534
3,54,80,6,4,1,60,1,2.9007
3,55,40,4,1,1,40,1,2.8858
3,56,80,2,1,1,80,0,2.3373
3,57,20,6,1,1,20,1,3.114
3,58,80,8,6,1,60,0,3.5929
3,59,60,2,1,1,40,1,2.1108
3,60,60,2,0,1,60,0,3.1282
3,61,40,10,4,1,40,1,3.5015
3,62,60,6,5,1,40,0,2.0326
3,63,20,6,1,1,20,1,3.3755
3,64,40,8,3,1,20,0,2.4502
3,65,20,10,0,1,40,0,2.698
3,66,80,10,9,1,60,0,2.7314
3,67,20,4,0,1,20,1,2.2942
3,68,40,10,4,1,20,0,2.8708
3,69,40,2,0,1,40,0,2.2948
3,70,20,6,1,1,20,1,2.6536
3,71,60,2,2,1,80,1,1.6986
3,72,40,10,3,1,20,1,2.1542
3,73,40,4,3,1,40,0,1.8848
3,74,20,4,2,1,40,1,1.6708
3,75,20,4,2,1,40,1,2.3788
3,76,80,8,7,1,60,0,2.8263
3,77,40,4,0,1,20,1,2.2552
3,78,60,10,8,1,60,0,3.1612
3,79,60,6,2,1,80,0,2.7464
3,80,40,4,2,1,60,1,2.096
3,81,60,4,3,1,80,1,1.6188
3,82,40,10,6,1,40,0,1.5872
3,83,80,8,6,1,60,0,2.6693
3,84,60,6,1,1,60,0,2.6676
3,85,40,10,4,1,60,1,3.1031
3,86,80,6,6,1,80,1,1.5058
3,87,20,8,1,1,20,1,2.9493
3,88,40,2,1,1,60,1,1.1314
3,89,80,6,6,1,60,0,1.828
3,90,40,8,2,1,40,0,2.489
3,91,20,8,3,1,40,1,3.1069
3,92,40,10,5,1,60,1,2.7834
3,93,20,6,2,1,40,1,2.1185
3,94,80,4,1,1,60,0,2.036
3,95,60,10,5,1,60,1,3.1885
3,96,20,6,2,1,20,1,2.068
3,97,20,10,0,1,20,1,1.6176
3,98,80,8,7,1,80,1,2.2687
3,99,40,4,1,1,40,1,2.3368
3,100,60,8,5,1,40,0,3.8742
3,101,20,10,0,1,40,0,1.5824
3,102,20,6,0,1,40,0,1.7789
3,103,80,6,5,1,60,1,2.1643
3,104,60,6,2,1,40,1,2.3642
3,105,20,8,2,1,40,1,3.3562
3,106,40,8,4,1,40,1,2.7107
3,107,60,8,4,1,60,0,2.9134
3,108,20,2,0,1,20,1,1.547
3,109,20,6,0,1,20,1,1.0789
3,110,20,8,2,1,40,0,2.9213
3,111,80,2,2,1,80,1,1.4489
3,112,80,4,4,1,80,1,1.2281
3,113,60,6,4,1,80,1,2.1839
3,114,20,8,1,1,20,1,2.0472
3,115,60,8,3,1,60,1,2.1081
3,116,40,2,1,1,20,0,1.4894
3,117,80,4,4,1,80,1,1.2871
3,118,80,2,2,1,60,1,2.2866
3,119,40,4,1,1,20,1,2.9223
3,120,40,8,4,1,60,1,3.5788
3,121,40,8,4,1,60,1,1.8737
3,122,20,8,4,1,40,1,2.3106
3,123,60,10,4,1,60,0,3.3356
3,124,60,8,5,1,60,1,1.9871
3,125,40,2,1,1,60,1,1.2206
3,126,60,10,6,1,80,0,2.2378
3,127,60,4,1,1,40,1,3.1209
3,128,60,4,3,1,80,1,2.4875
3,129,60,2,0,1,60,0,3.0432
3,130,80,10,9,1,80,1,1.7283
3,131,20,2,0,1,20,1,1.4879
3,132,80,4,2,1,80,0,2.1055
3,133,40,6,3,1,40,1,2.2201
3,134,80,2,2,1,60,1,1.953
3,135,40,8,4,1,40,1,2.2714
3,136,40,6,3,1,40,1,1.7588
3,137,60,4,1,1,60,0,3.0911
3,138,60,6,3,1,60,1,1.741
3,139,40,8,1,1,60,0,2.3513
3,140,60,2,2,1,60,1,1.8709
3,141,20,10,2,1,20,1,4.9141
3,142,60,8,5,1,40,0,4.2458
3,143,40,6,2,1,20,0,4.5604
3,144,80,2,0,1,60,0,2.3604
3,145,80,8,6,1,80,1,2.888
3,146,20,10,2,1,20,1,4.3579
3,147,60,10,5,1,40,1,4.4542
3,148,60,6,5,1,60,1,2.442
3,149,40,8,4,1,20,0,2.8724
3,150,80,4,4,1,80,1,1.2687
3,151,20,10,2,1,40,1,3.2038
3,152,20,4,0,1,40,0,2.7347
3,153,60,10,3,1,60,0,2.6212
3,154,80,6,5,1,60,1,4.6852
3,155,80,6,5,1,80,1,2.0138
3,156,80,10,6,1,80,1,3.8354
3,157,60,10,4,1,40,1,3.0937
3,158,60,2,2,1,40,0,1.4644
3,159,80,8,7,1,80,1,1.9444
3,160,60,6,3,1,80,0,2.9204
3,161,20,10,2,0,40,NaN,0
3,162,40,4,3,0,40,1,3.9934
3,163,40,6,1,0,20,1,2.9821
3,164,60,4,3,0,60,1,1.9981
3,165,80,6,6,0,60,0,2.0355
3,166,20,6,0,0,40,0,2.0784
3,167,20,4,0,0,40,0,3.5087
3,168,80,4,2,0,80,0,2.4389
3,169,60,6,3,0,60,1,2.8202
3,170,80,8,5,0,80,0,2.8183
3,171,20,10,3,0,40,1,4.5264
3,172,80,2,2,0,60,1,1.5985
3,173,60,6,3,0,60,1,2.3447
3,174,60,10,7,0,60,1,2.7749
3,175,80,8,6,0,60,1,2.704
3,176,40,8,5,0,40,0,2.4221
3,177,60,6,4,0,60,1,1.6712
3,178,80,2,2,0,80,1,1.0514
3,179,60,4,2,0,80,0,2.2227
3,180,80,2,0,0,80,0,2.8913
3,181,60,2,2,0,60,1,2.6242
3,182,40,2,2,0,20,0,2.8635
3,183,40,2,1,0,40,1,1.5526
3,184,60,10,8,0,60,1,2.9687
3,185,40,10,4,0,40,1,3.1067
3,186,20,6,0,0,40,0,3.057
3,187,20,6,1,0,20,1,4.126
3,188,40,10,5,0,60,1,3.5347
3,189,80,10,9,0,80,1,3.036
3,190,20,4,0,0,20,1,3.1283
3,191,20,8,5,0,20,0,4.2797
3,192,60,2,1,0,40,1,1.4959
3,193,60,8,4,0,80,0,2.5517
3,194,80,8,5,0,60,1,1.8983
3,195,60,4,2,0,40,1,2.2462
3,196,40,4,1,0,40,1,2.9508
3,197,20,2,0,0,20,1,1.976
3,198,80,6,4,0,80,0,3.0805
3,199,80,8,6,0,80,1,3.0992
3,200,80,10,9,0,80,1,1.3849
3,201,60,8,5,0,60,1,3.9635
3,202,20,6,2,0,40,1,2.1762
3,203,80,10,8,0,60,1,3.8442
3,204,80,2,2,0,60,1,2.02
3,205,60,4,1,0,60,0,4.0907
3,206,60,10,9,0,80,1,4.2727
3,207,20,4,1,0,20,1,3.7979
3,208,40,10,5,0,20,0,2.5894
3,209,40,6,2,0,20,1,3.6877
3,210,40,6,3,0,60,1,2.3671
3,211,20,6,1,0,20,NaN,0
3,212,40,8,3,0,40,1,2.6039
3,213,40,4,1,0,40,1,2.9831
3,214,40,6,1,0,60,0,2.6328
3,215,80,10,8,0,60,0,3.2702
3,216,80,8,5,0,80,0,3.4589
3,217,40,10,4,0,40,1,3.058
3,218,20,8,2,0,40,1,4.6337
3,219,20,10,0,0,20,1,1.6144
3,220,60,4,3,0,40,0,3.2298
3,221,40,4,1,0,20,1,2.2844
3,222,60,6,3,0,80,0,2.0206
3,223,20,4,1,0,20,1,3.8548
3,224,20,10,3,0,40,1,4.4835
3,225,40,6,1,0,40,0,3.5014
3,226,20,6,2,0,40,1,2.4444
3,227,20,10,2,0,40,1,3.7402
3,228,20,4,2,0,20,1,2.8718
3,229,40,8,3,0,40,1,3.1053
3,230,20,10,2,0,40,1,3.1962
3,231,20,2,1,0,20,0,1.5616
3,232,40,8,2,0,40,1,2.9268
3,233,40,8,4,0,60,1,3.1214
3,234,80,6,4,0,80,0,4.1901
3,235,60,2,0,0,40,0,3.2956
3,236,20,10,2,0,40,0,3.667
3,237,20,8,0,0,20,1,3.1826
3,238,20,2,0,0,40,1,2.1953
3,239,40,4,1,0,40,1,2.5828
3,240,40,2,1,0,40,1,1.1617
3,241,20,10,1,0,20,1,2.0275
3,242,40,8,2,0,20,1,2.5652
3,243,20,8,3,0,40,1,2.2993
3,244,80,4,2,0,80,0,3.5773
3,245,80,6,6,0,80,1,1.6248
3,246,60,8,5,0,80,1,4.0279
3,247,20,2,0,0,20,1,1.5568
3,248,80,4,4,0,80,1,1.0907
3,249,60,8,2,0,40,1,4.1996
3,250,60,10,6,0,60,1,3.4425
3,251,60,8,6,0,60,1,4.8813
3,252,60,10,7,0,40,0,3.133
3,253,40,8,4,0,40,1,3.4421
3,254,80,6,2,0,60,0,2.8363
3,255,80,8,5,0,60,1,3.0099
3,256,40,6,4,0,40,0,2.222
3,257,60,8,4,0,80,0,3.1694
3,258,60,2,2,0,40,1,1.6757
3,259,20,4,0,0,40,0,4.533
3,260,40,6,4,0,40,0,3.0773
3,261,20,6,0,0,40,0,2.1034
3,262,60,4,3,0,60,1,2.8176
3,263,20,8,2,0,20,1,3.5429
3,264,80,4,3,0,60,1,1.2838
3,265,20,8,2,0,20,1,2.1394
3,266,40,2,0,0,60,1,2.2887
3,267,80,8,7,0,60,1,2.7378
3,268,40,4,3,0,60,1,2.3912
3,269,60,2,0,0,60,0,2.289
3,270,40,10,5,0,20,0,3.3627
3,271,80,6,5,0,60,1,3.2669
3,272,40,4,2,0,20,0,3.3058
3,273,60,10,3,0,80,0,3.4827
3,274,20,8,1,0,20,1,3.3319
3,275,80,6,4,0,80,0,3.1945
3,276,40,10,4,0,60,0,3.0421
3,277,20,6,0,0,40,0,1.6448
3,278,40,2,0,0,60,1,3.6441
3,279,60,6,4,0,80,0,2.9397
3,280,40,4,1,0,20,1,3.7599
3,281,60,8,4,0,80,0,2.1648
3,282,80,4,1,0,60,0,4.3097
3,283,40,10,2,0,40,1,4.3998
3,284,40,2,1,0,40,1,1.1927
3,285,40,2,1,0,40,1,2.3282
3,286,80,2,1,0,80,0,1.3403
3,287,60,4,2,0,60,1,2.5782
3,288,60,4,2,0,60,1,1.5894
3,289,20,2,1,0,20,0,1.1723
3,290,20,2,0,0,20,1,2.3224
3,291,80,8,6,0,80,1,2.7248
3,292,60,2,1,0,40,1,2.795
3,293,40,2,1,0,20,0,1.3076
3,294,60,6,1,0,60,0,2.9766
3,295,40,8,3,0,60,0,3.5968
3,296,80,10,7,0,60,1,2.9321
3,297,60,6,1,0,40,1,3.037
3,298,60,8,5,0,40,0,2.8625
3,299,80,2,2,0,60,1,3.1394
3,300,60,10,2,0,80,0,4.0048
3,301,80,2,2,0,60,1,1.6086
3,302,80,2,2,0,60,1,0.86831
3,303,80,6,6,0,80,1,1.158
3,304,40,10,3,0,40,1,3.0966
3,305,40,6,4,0,60,1,2.1394
3,306,20,4,2,0,20,0,3.1066
3,307,60,10,4,0,60,0,3.9869
3,308,80,10,9,0,60,0,3.3439
3,309,60,6,4,0,60,1,2.3481
3,310,80,4,4,0,80,1,1.4002
3,311,80,4,2,0,80,0,1.6082
3,312,20,2,2,0,40,0,1.3907
3,313,20,4,1,0,20,1,3.5269
3,314,60,2,2,0,60,1,1.9687
3,315,80,4,3,0,60,1,1.3085
3,316,60,2,2,0,60,1,2.3119
3,317,20,2,1,0,40,1,3.1046
3,318,20,8,0,0,40,0,2.9501
3,319,80,10,9,0,80,1,1.858
3,320,80,10,6,0,60,1,3.4347
4,1,40,4,0,1,40,NaN,0
4,2,20,10,1,1,20,NaN,0
4,3,80,4,3,1,60,1,1.8401
4,4,60,4,3,1,60,1,2.6753
4,5,40,6,3,1,60,0,3.021
4,6,60,10,5,1,40,0,2.9207
4,7,80,8,8,1,80,1,2.561
4,8,60,2,2,1,40,0,2.2657
4,9,20,8,1,1,40,0,2.7637
4,10,60,6,3,1,60,1,2.9134
4,11,40,8,2,1,60,1,4.1839
4,12,40,8,1,1,20,1,2.3937
4,13,60,8,5,1,60,1,4.0074
4,14,80,2,2,1,60,0,2.612
4,15,80,10,10,1,60,0,1.6944
4,16,40,4,1,1,20,1,3.1735
4,17,80,8,6,1,60,0,2.6587
4,18,60,2,1,1,80,0,2.0607
4,19,80,8,7,1,80,1,2.9705
4,20,40,4,0,1,60,0,2.3617
4,21,80,6,3,1,60,0,2.8124
4,22,60,6,5,1,40,0,2.9514
4,23,20,6,1,1,40,0,2.1851
4,24,40,2,1,1,40,1,1.9669
4,25,80,4,4,1,60,0,1.8201
4,26,20,10,4,1,40,0,2.4864
4,27,60,4,3,1,40,0,2.1858
4,28,20,4,1,1,40,0,2.0929
4,29,60,2,1,1,60,1,2.5002
4,30,40,6,1,1,20,1,3.2062
4,31,80,8,6,1,80,1,2.9514
4,32,80,2,2,1,60,0,1.9125
4,33,60,10,7,1,40,0,2.8748
4,34,60,4,4,1,60,0,1.5509
4,35,60,2,0,1,40,1,3.1014
4,36,60,4,2,1,60,1,2.2237
4,37,40,2,2,1,60,0,2.3649
4,38,80,6,5,1,80,1,2.1491
4,39,20,2,1,1,40,1,3.215
4,40,80,8,5,1,80,1,2.2557
4,41,40,4,2,1,40,1,2.1301
4,42,20,2,1,1,20,0,2.6128
4,43,20,2,2,1,40,0,1.9042
4,44,80,6,6,1,60,0,2.1842
4,45,40,6,1,1,40,0,3.5998
4,46,20,10,2,1,40,0,2.7772
4,47,20,2,1,1,40,1,2.4106
4,48,60,6,2,1,60,0,2.1844
4,49,20,8,1,1,20,1,2.2127
4,50,40,10,3,1,40,1,3.3119
4,51,40,8,2,1,40,0,2.4727
4,52,40,4,3,1,20,0,2.1332
4,53,60,10,5,1,80,0,3.867
4,54,20,8,1,1,40,0,2.4125
4,55,20,4,0,1,20,1,2.8057
4,56,80,4,3,1,80,0,2.6322
4,57,80,6,4,1,60,1,2.6327
4,58,40,2,1,1,60,0,3.5235
4,59,80,8,7,1,60,0,3.1441
4,60,60,2,2,1,40,0,1.7271
4,61,60,8,5,1,60,1,2.8722
4,62,20,6,2,1,20,0,2.2402
4,63,80,2,2,1,60,0,2.4366
4,64,60,8,4,1,80,0,1.97
4,65,80,10,9,1,60,0,1.7693
4,66,80,2,2,1,60,0,1.9751
4,67,20,4,0,1,20,1,2.8932
4,68,60,6,2,1,80,0,2.6728
4,69,40,8,2,1,60,0,2.5955
4,70,40,2,1,1,40,1,2.6734
4,71,80,10,6,1,80,0,3.2182
4,72,40,2,1,1,40,1,1.6716
4,73,60,6,2,1,60,0,4.2131
4,74,20,2,1,1,20,0,2.1261
4,75,60,8,4,1,60,1,3.4465
4,76,80,4,4,1,80,NaN,0
4,77,20,4,0,1,20,1,2.4677
4,78,40,10,5,1,40,1,3.9669
4,79,40,6,1,1,40,0,2.5635
4,80,40,4,2,1,20,0,1.7483
4,81,40,6,1,1,20,1,2.3304
4,82,20,4,1,1,40,0,2.4533
4,83,60,10,7,1,80,1,1.5837
4,84,60,8,5,1,80,1,1.8841
4,85,60,2,0,1,60,0,2.1346
4,86,20,6,1,1,20,1,2.3907
4,87,60,6,4,1,80,1,3.752
4,88,20,6,0,1,40,0,1.8963
4,89,60,2,1,1,40,1,2.3258
4,90,60,6,4,1,40,0,2.4167
4,91,80,2,1,1,80,0,1.7355
4,92,20,2,1,1,40,1,2.2301
4,93,20,8,0,1,20,1,3.276
4,94,40,10,3,1,40,0,3.6355
4,95,80,10,9,1,80,1,1.8196
4,96,60,10,4,1,60,1,4.0439
4,97,40,4,2,1,40,1,3.8026
4,98,80,4,4,1,60,0,1.6163
4,99,80,8,7,1,80,1,3.9917
4,100,40,6,0,1,40,0,2.1708
4,101,80,6,4,1,60,1,4.6216
4,102,20,6,1,1,20,1,2.1858
4,103,20,4,2,1,40,1,2.3765
4,104,80,4,4,1,80,1,1.283
4,105,40,10,3,1,40,1,2.6755
4,106,40,2,0,1,20,1,1.4699
4,107,20,4,2,1,40,1,3.5119
4,108,60,8,5,1,60,1,3.1812
4,109,40,10,2,1,40,1,3.8393
4,110,40,6,2,1,20,1,1.6055
4,111,60,4,2,1,40,0,2.8441
4,112,40,2,0,1,40,1,2.8866
4,113,20,8,0,1,20,1,1.9715
4,114,40,8,1,1,20,1,1.6351
4,115,40,6,2,1,60,0,2.2734
4,116,20,6,2,1,20,0,1.9932
4,117,20,2,1,1,20,0,1.8072
4,118,80,2,2,1,80,1,1.7929
4,119,40,10,6,1,60,1,3.1118
4,120,20,10,1,1,40,0,1.7767
4,121,60,2,2,1,60,0,2.0159
4,122,60,4,0,1,60,0,2.1588
4,123,80,10,9,1,80,1,1.8616
4,124,20,8,1,1,40,0,2.7924
4,125,20,2,0,1,20,1,2.4692
4,126,60,6,4,1,60,1,3.5838
4,127,20,10,0,1,40,0,1.7413
4,128,80,6,6,1,80,1,2.8852
4,129,40,8,1,1,40,0,1.7682
4,130,80,10,7,1,60,1,3.1842
4,131,80,10,8,1,60,0,2.7836
4,132,40,8,3,1,40,1,4.1409
4,133,60,10,6,1,80,0,2.9952
4,134,60,8,4,1,80,0,2.6811
4,135,20,10,0,1,40,0,1.4155
4,136,80,2,1,1,80,0,1.473
4,137,40,2,1,1,40,1,1.8225
4,138,60,8,4,1,60,1,3.1809
4,139,80,8,7,1,80,1,2.0887
4,140,80,4,4,1,60,0,1.2208
4,141,60,4,3,1,60,1,2.8106
4,142,40,10,3,1,40,0,2.8647
4,143,80,6,6,1,80,1,1.9276
4,144,40,8,4,1,20,0,2.1656
4,145,40,10,4,1,60,1,2.0606
4,146,20,4,0,1,20,1,2.1105
4,147,80,4,1,1,80,0,1.6881
4,148,20,6,3,1,20,0,2.1898
4,149,60,10,7,1,60,1,3.9755
4,150,80,6,5,1,60,0,2.1738
4,151,40,4,3,1,60,1,2.514
4,152,20,10,2,1,20,1,2.6061
4,153,20,6,1,1,20,1,2.4571
4,154,20,10,2,1,40,1,3.3485
4,155,80,10,8,1,60,NaN,0
4,156,60,10,6,1,60,1,2.3773
4,157,80,2,2,1,80,1,1.8452
4,158,20,8,2,1,20,1,2.3277
4,159,20,8,1,1,40,0,2.3806
4,160,60,4,1,1,80,0,2.3347
4,161,40,10,6,0,40,0,4.9519
4,162,40,4,2,0,20,0,2.2367
4,163,80,6,5,0,80,1,2.5683
4,164,60,10,5,0,40,NaN,0
4,165,80,10,7,0,60,1,2.3281
4,166,40,2,1,0,40,1,2.2759
4,167,20,6,0,0,20,1,1.6008
4,168,80,4,4,0,60,0,1.7511
4,169,80,2,1,0,80,0,2.6183
4,170,40,10,4,0,40,1,2.8132
4,171,80,2,1,0,80,0,1.844
4,172,80,6,6,0,80,1,1.4206
4,173,60,6,5,0,40,0,1.9346
4,174,80,4,2,0,60,1,1.874
4,175,60,8,1,0,60,0,2.1033
4,176,20,2,1,0,20,0,2.0477
4,177,40,4,2,0,60,1,2.6049
4,178,60,4,2,0,40,0,2.0828
4,179,20,4,0,0,20,1,2.2883
4,180,20,8,2,0,40,1,3.4595
4,181,80,4,4,0,80,1,1.3431
4,182,60,6,5,0,60,0,3.0478
4,183,80,10,9,0,80,1,1.9666
4,184,40,8,4,0,60,1,3.3444
4,185,60,10,6,0,60,1,3.0639
4,186,60,10,7,0,60,1,3.2494
4,187,60,4,2,0,80,0,1.7098
4,188,80,8,6,0,80,1,2.8903
4,189,60,8,4,0,80,0,1.7025
4,190,20,10,1,0,20,1,2.028
4,191,60,2,2,0,60,0,1.9347
4,192,20,4,0,0,40,0,2.6457
4,193,80,4,3,0,80,1,2.4455
4,194,80,2,2,0,80,1,1.6736
4,195,60,6,2,0,40,0,4.8827
4,196,60,2,2,0,80,1,1.1918
4,197,80,4,2,0,60,1,3.961
4,198,20,4,1,0,20,1,2.2312
4,199,40,6,4,0,60,1,2.4911
4,200,80,8,7,0,80,1,2.7432
4,201,20,2,0,0,40,0,1.4349
4,202,40,8,2,0,40,0,3.3157
4,203,80,10,9,0,60,0,1.9027
4,204,60,4,4,0,60,0,1.6
4,205,60,2,2,0,80,1,1.2574
4,206,80,10,4,0,80,0,3.7759
4,207,20,10,1,0,20,1,1.6758
4,208,80,2,2,0,60,0,2.0058
4,209,60,4,3,0,60,1,1.9763
4,210,80,8,6,0,60,1,2.3354
4,211,20,10,2,0,40,0,3.0842
4,212,80,6,2,0,80,0,1.7251
4,213,60,2,2,0,60,0,1.8772
4,214,80,6,4,0,80,0,1.7166
4,215,20,6,1,0,40,0,2.8648
4,216,20,6,1,0,20,1,2.5251
4,217,60,6,4,0,40,0,2.4651
4,218,80,10,4,0,80,0,2.1828
4,219,40,10,1,0,40,0,1.6451
4,220,40,2,0,0,40,0,1.8116
4,221,20,6,1,0,20,1,1.9066
4,222,60,8,2,0,60,0,2.5505
4,223,20,8,1,0,40,0,2.2673
4,224,40,6,1,0,20,1,1.9323
4,225,20,4,2,0,20,0,2.3196
4,226,20,8,0,0,20,1,3.3129
4,227,20,6,0,0,40,0,2.662
4,228,60,4,4,0,80,1,1.4009
4,229,60,6,3,0,60,1,2.3307
4,230,20,4,0,0,40,0,2.5005
4,231,80,2,2,0,60,0,2.9429
4,232,20,8,1,0,40,0,2.5763
4,233,20,4,1,0,20,1,2.0018
4,234,60,2,2,0,40,0,3.3346
4,235,40,10,4,0,60,0,3.3187
4,236,40,4,2,0,60,1,4.3474
4,237,80,4,3,0,60,0,3.1006
4,238,20,2,0,0,40,1,2.9786
4,239,40,2,2,0,40,1,2.7889
4,240,20,10,2,0,40,0,2.8556
4,241,20,6,2,0,40,1,4.0715
4,242,60,6,3,0,80,0,1.9089
4,243,20,10,2,0,40,0,2.6457
4,244,60,2,2,0,80,1,1.7816
4,245,80,2,1,0,60,1,2.3031
4,246,80,10,9,0,60,0,1.7423
4,247,60,10,4,0,60,1,3.2208
4,248,40,8,5,0,60,1,2.3428
4,249,20,10,3,0,40,1,3.2615
4,250,40,4,0,0,20,1,1.5683
4,251,60,2,1,0,60,1,2.5001
4,252,20,10,2,0,40,0,3.8981
4,253,80,8,8,0,60,0,2.0052
4,254,20,10,2,0,20,1,4.2201
4,255,80,8,8,0,60,0,1.7418
4,256,40,2,0,0,40,0,2.8333
4,257,20,6,1,0,20,1,2.2393
4,258,80,2,2,0,80,1,1.9156
4,259,40,8,3,0,40,1,4.0581
4,260,40,10,4,0,40,1,2.5382
4,261,40,2,2,0,40,0,1.7367
4,262,80,2,2,0,80,1,1.2075
4,263,60,10,6,0,60,1,2.4685
4,264,20,6,2,0,40,1,3.3991
4,265,80,4,4,0,80,1,2.1098
4,266,80,6,5,0,60,1,3.5125
4,267,40,4,1,0,40,0,2.4869
4,268,40,8,3,0,60,0,4.5616
4,269,60,10,6,0,60,0,2.6248
4,270,40,4,2,0,60,1,2.2355
4,271,40,2,0,0,60,0,1.8263
4,272,60,6,5,0,60,0,2.9997
4,273,20,4,0,0,20,1,1.6498
4,274,20,2,2,0,40,0,2.6208
4,275,60,2,2,0,60,1,1.3877
4,276,20,2,2,0,40,0,2.0074
4,277,60,10,8,0,60,0,2.8726
4,278,60,8,3,0,40,1,3.389
4,279,80,8,6,0,80,1,2.2664
4,280,40,4,2,0,60,1,2.2767
4,281,40,6,2,0,40,1,2.6726
4,282,40,2,1,0,20,0,2.7218
4,283,80,6,5,0,80,1,1.9164
4,284,20,2,0,0,40,1,2.3692
4,285,20,8,3,0,20,0,3.1429
4,286,40,8,4,0,20,0,2.2995
4,287,20,2,1,0,20,0,1.4758
4,288,20,8,1,0,20,1,2.6487
4,289,60,4,4,0,40,0,1.5313
4,290,80,8,6,0,60,0,3.0309
4,291,80,10,9,0,80,1,1.7076
4,292,60,6,1,0,60,0,1.6602
4,293,60,4,4,0,60,0,2.6361
4,294,80,6,5,0,60,1,1.4063
4,295,40,8,4,0,40,0,2.7153
4,296,40,6,1,0,40,0,3.0717
4,297,60,8,4,0,80,0,1.6178
4,298,40,10,4,0,40,1,3.3774
4,299,20,8,1,0,20,1,2.7359
4,300,60,8,7,0,40,0,2.4156
4,301,40,10,5,0,20,0,2.0318
4,302,40,10,4,0,40,1,2.4993
4,303,40,2,1,0,20,0,1.5646
4,304,60,8,2,0,80,0,1.6413
4,305,40,6,4,0,20,0,1.6508
4,306,80,8,8,0,60,0,2.0986
4,307,60,10,6,0,60,1,3.006
4,308,40,6,3,0,40,1,3.174
4,309,20,8,1,0,20,1,3.8746
4,310,40,8,3,0,20,0,2.2953
4,311,80,6,4,0,60,1,2.7163
4,312,40,6,3,0,40,1,3.6017
4,313,20,4,0,0,40,0,3.4994
4,314,40,6,4,0,40,0,2.9155
4,315,60,4,0,0,80,0,1.9075
4,316,40,4,1,0,20,1,2.172
4,317,80,4,2,0,60,0,2.5388
4,318,20,2,1,0,20,0,1.8242
4,319,80,10,8,0,60,0,4.1592
4,320,60,8,4,0,40,1,2.2412
5,1,40,10,4,1,60,1,4.2791
5,2,80,4,3,1,60,1,3.1158
5,3,60,4,2,1,60,0,3.7918
5,4,80,10,9,1,80,0,3.317
5,5,80,8,6,1,80,1,2.8225
5,6,40,10,7,1,20,0,4.1028
5,7,40,4,3,1,40,0,2.669
5,8,60,6,4,1,60,1,2.5749
5,9,80,8,5,1,60,1,2.5356
5,10,40,8,2,1,40,0,3.0248
5,11,40,4,4,1,40,0,2.2169
5,12,80,10,10,1,80,1,2.3131
5,13,80,6,4,1,80,1,3.7117
5,14,20,8,0,1,40,0,3.3939
5,15,80,10,9,1,80,1,2.6243
5,16,40,6,2,1,20,0,3.984
5,17,20,4,2,1,20,0,2.988
5,18,20,2,0,1,40,0,3.581
5,19,40,6,4,1,60,1,3.9091
5,20,20,2,2,1,40,0,1.4343
5,21,40,4,2,1,20,0,1.8928
5,22,60,4,1,1,60,0,2.4165
5,23,40,2,0,1,40,0,2.5021
5,24,20,10,0,1,40,0,2.2268
5,25,60,4,3,1,60,1,3.8694
5,26,20,8,3,1,40,1,3.3842
5,27,20,8,2,1,20,1,3.553
5,28,40,6,2,1,60,0,1.8783
5,29,60,10,5,1,40,1,3.3701
5,30,40,6,3,1,40,1,3.0789
5,31,60,10,8,1,40,0,2.8252
5,32,80,10,10,1,80,1,2.896
5,33,60,6,4,1,80,1,2.6109
5,34,80,10,7,1,60,1,3.006
5,35,60,10,9,1,60,1,3.6973
5,36,80,4,2,1,60,0,2.6974
5,37,40,10,8,1,40,0,2.1888
5,38,20,2,0,1,20,0,1.8568
5,39,20,2,1,1,20,0,2.4127
5,40,60,4,3,1,80,1,2.3104
5,41,20,6,2,1,40,1,2.2846
5,42,80,6,5,1,60,0,2.4562
5,43,80,2,1,1,60,1,1.8577
5,44,60,8,3,1,60,0,3.2413
5,45,80,6,4,1,60,1,2.6911
5,46,60,10,9,1,60,0,1.9271
5,47,40,10,3,1,40,0,4.378
5,48,20,10,1,1,20,1,3.5503
5,49,60,4,2,1,60,0,1.9766
5,50,60,10,7,1,60,1,3.4314
5,51,60,2,1,1,40,1,2.634
5,52,20,10,2,1,40,0,2.4209
5,53,60,4,2,1,40,1,2.621
5,54,60,8,3,1,40,1,2.3949
5,55,40,8,0,1,40,0,2.5761
5,56,80,6,4,1,60,1,2.324
5,57,20,4,0,1,20,1,3.5063
5,58,80,4,3,1,80,1,2.1298
5,59,60,6,3,1,80,0,3.6498
5,60,80,4,3,1,80,1,1.8757
5,61,60,4,4,1,60,0,2.2855
5,62,40,2,0,1,40,0,1.7341
5,63,80,2,1,1,80,0,1.9448
5,64,20,10,2,1,40,0,2.782
5,65,80,4,3,1,60,1,2.1836
5,66,80,4,4,1,60,0,1.9598
5,67,20,8,2,1,40,0,2.8414
5,68,20,6,1,1,20,1,2.1166
5,69,40,8,2,1,60,0,2.8456
5,70,20,10,2,1,40,0,3.2458
5,71,80,8,6,1,80,1,2.5383
5,72,40,4,2,1,60,1,4.1804
5,73,40,2,1,1,20,0,2.8525
5,74,20,8,0,1,40,0,2.3356
5,75,80,10,6,1,60,1,3.8679
5,76,60,6,3,1,80,0,2.0868
5,77,20,4,2,1,20,0,2.1753
5,78,40,6,3,1,40,1,2.8782
5,79,40,4,3,1,40,0,2.3497
5,80,80,8,7,1,60,0,3.9999
5,81,40,6,5,1,60,1,1.7989
5,82,80,6,5,1,60,0,2.1485
5,83,40,2,0,1,40,0,1.8352
5,84,80,8,7,1,80,1,2.7032
5,85,80,10,5,1,60,1,3.4087
5,86,80,2,2,1,80,1,1.4962
5,87,40,6,3,1,60,1,4.5449
5,88,20,2,1,1,20,0,3.8969
5,89,20,10,4,1,20,0,3.6456
5,90,20,2,1,1,40,1,2.5191
5,91,40,6,3,1,40,1,2.1281
5,92,60,8,4,1,60,NaN,0
5,93,80,6,5,1,80,1,1.8213
5,94,20,6,1,1,40,0,2.2419
5,95,60,2,2,1,60,0,1.7262
5,96,60,6,3,1,80,0,2.0185
5,97,60,4,3,1,60,0,2.9526
5,98,60,6,3,1,40,1,2.0106
5,99,80,2,2,1,60,0,1.1366
5,100,60,10,8,1,80,1,2.5261
5,101,40,4,2,1,40,1,2.0956
5,102,20,2,0,1,20,0,2.7424
5,103,20,8,3,1,40,1,2.5269
5,104,80,6,4,1,60,1,2.7942
5,105,20,8,2,1,20,1,2.5429
5,106,40,10,5,1,60,1,3.648
5,107,60,6,3,1,60,1,2.5947
5,108,20,10,1,1,40,0,2.584
5,109,20,10,3,1,40,1,3.1415
5,110,60,2,1,1,80,0,1.723
5,111,60,8,3,1,40,1,2.5178
5,112,40,10,2,1,60,0,2.9141
5,113,80,4,3,1,80,1,2.5471
5,114,60,2,0,1,60,0,2.1386
5,115,20,6,1,1,40,0,2.8608
5,116,40,10,6,1,20,0,3.4101
5,117,40,8,3,1,40,1,2.343
5,118,20,4,2,1,20,0,2.5797
5,119,40,10,4,1,40,1,2.3489
5,120,40,4,1,1,40,0,2.1932
5,121,60,8,6,1,80,1,2.305
5,122,20,4,1,1,20,1,1.9467
5,123,80,8,7,1,60,0,2.6333
5,124,40,8,2,1,40,0,3.7555
5,125,60,2,1,1,60,1,1.4884
5,126,60,2,2,1,60,0,1.4953
5,127,40,2,1,1,20,0,2.106
5,128,80,2,2,1,80,1,1.0734
5,129,40,4,2,1,40,1,1.3738
5,130,40,8,1,1,20,1,1.3803
5,131,80,2,1,1,60,1,1.0846
5,132,40,2,2,1,40,0,1.4102
5,133,20,8,1,1,40,0,1.8873
5,134,60,8,4,1,40,1,1.1924
5,135,20,6,0,1,20,1,3.0133
5,136,20,4,1,1,20,1,1.7099
5,137,60,8,7,1,80,1,2.2287
5,138,60,10,7,1,40,0,1.8921
5,139,20,4,0,1,20,1,2.143
5,140,80,8,7,1,80,1,2.2383
5,141,60,8,6,1,60,1,4.6896
5,142,80,2,2,1,80,1,1.7409
5,143,20,6,0,1,20,1,2.0132
5,144,80,4,2,1,80,0,1.5236
5,145,60,2,2,1,60,0,1.3956
5,146,40,2,2,1,60,0,1.6795
5,147,80,10,8,1,60,0,2.5853
5,148,40,8,6,1,20,0,1.9497
5,149,80,6,3,1,80,0,2.5926
5,150,60,2,1,1,40,1,1.8322
5,151,20,6,1,1,20,1,2.3048
5,152,20,4,0,1,40,0,2.724
5,153,40,2,0,1,20,1,2.0612
5,154,80,2,2,1,80,1,1.579
5,155,20,6,1,1,40,0,2.0991
5,156,60,6,4,1,60,1,2.0351
5,157,40,8,4,1,20,0,1.9562
5,158,60,10,3,1,80,0,2.0027
5,159,20,2,1,1,20,0,1.8351
5,160,80,8,5,1,60,1,2.3476
5,161,60,6,4,0,60,1,2.3596
5,162,40,6,1,0,20,1,3.9272
5,163,20,10,0,0,20,0,3.4236
5,164,60,8,4,0,60,0,4.8477
5,165,60,6,4,0,80,0,3.231
5,166,20,10,3,0,20,1,3.8485
5,167,20,4,1,0,40,0,3.4867
5,168,80,8,7,0,60,0,3.3632
5,169,80,4,3,0,60,0,3.0969
5,170,60,8,5,0,80,0,3.8896
5,171,40,4,3,0,60,0,3.5214
5,172,60,6,4,0,40,0,4.2075
5,173,40,10,6,0,40,0,4.4721
5,174,80,8,7,0,80,1,2.7025
5,175,20,6,2,0,20,0,2.8666
5,176,60,8,4,0,80,0,2.9783
5,177,40,6,1,0,40,0,3.4216
5,178,20,4,1,0,40,0,4.9702
5,179,20,8,1,0,20,1,3.4735
5,180,80,6,5,0,80,1,2.8109
5,181,40,2,2,0,40,0,2.4012
5,182,60,10,6,0,80,0,3.2901
5,183,60,2,1,0,40,1,3.8776
5,184,40,6,3,0,60,0,3.6609
5,185,60,4,2,0,80,0,3.7873
5,186,60,6,5,0,40,1,2.9798
5,187,60,8,7,0,60,0,2.1751
5,188,20,8,1,0,40,0,2.7777
5,189,80,8,7,0,60,0,2.6459
5,190,60,4,2,0,80,0,2.7946
5,191,60,10,5,0,80,NaN,0
5,192,80,4,3,0,80,1,2.133
5,193,60,10,7,0,80,1,2.3249
5,194,20,6,0,0,20,0,2.1575
5,195,80,8,7,0,80,1,2.188
5,196,40,10,7,0,60,1,2.5151
5,197,80,2,1,0,80,0,1.9478
5,198,40,10,2,0,60,0,3.3591
5,199,60,6,3,0,60,1,3.3718
5,200,20,10,1,0,20,1,2.959
5,201,60,4,3,0,60,0,2.863
5,202,80,2,2,0,60,0,2.197
5,203,20,6,1,0,20,1,2.6961
5,204,20,10,3,0,20,1,2.9598
5,205,80,6,6,0,60,0,2.3941
5,206,20,4,2,0,40,1,1.8543
5,207,20,2,0,0,20,1,2.3244
5,208,80,4,4,0,60,1,2.9287
5,209,80,6,5,0,80,1,2.1726
5,210,20,6,0,0,20,1,0.45993
5,211,40,8,0,0,60,0,1.3814
5,212,60,10,7,0,60,1,2.7991
5,213,20,4,0,0,20,1,3.4203
5,214,40,10,4,0,40,1,3.3623
5,215,80,2,2,0,80,1,3.0289
5,216,80,4,3,0,80,1,3.1223
5,217,20,4,2,0,40,1,1.9369
5,218,40,2,0,0,40,0,2.4308
5,219,60,2,2,0,40,0,2.99
5,220,80,10,8,0,60,0,3.6947
5,221,60,10,7,0,60,1,2.7367
5,222,60,4,1,0,40,0,3.4134
5,223,60,8,5,0,60,1,3.3403
5,224,60,4,1,0,80,0,2.8838
5,225,20,10,0,0,40,0,3.1158
5,226,40,6,4,0,40,0,2.5108
5,227,20,6,1,0,40,0,3.1987
5,228,40,4,0,0,40,0,2.6748
5,229,60,4,3,0,60,0,2.6422
5,230,60,6,4,0,60,1,3.1877
5,231,20,2,1,0,40,1,1.8645
5,232,80,10,9,0,80,1,2.0337
5,233,40,6,2,0,40,1,2.9954
5,234,80,10,10,0,80,1,1.7992
5,235,60,2,1,0,80,0,3.5177
5,236,40,8,6,0,40,1,4.5183
5,237,80,2,2,0,60,0,1.9678
5,238,80,6,5,0,80,1,2.2111
5,239,20,2,1,0,20,0,1.5459
5,240,60,10,7,0,60,1,2.6422
5,241,40,4,1,0,60,0,2.1357
5,242,40,10,6,0,20,0,2.7436
5,243,80,2,0,0,60,0,1.9218
5,244,20,2,1,0,20,0,2.1212
5,245,20,6,0,0,20,1,2.2838
5,246,60,4,1,0,60,0,2.1836
5,247,60,8,5,0,40,0,1.394
5,248,20,8,0,0,40,0,1.7554
5,249,20,2,1,0,20,0,0.90411
5,250,80,6,4,0,80,0,1.1055
5,251,60,8,4,0,40,0,2.2154
5,252,40,4,1,0,40,0,1.7559
5,253,20,8,1,0,40,0,2.1208
5,254,80,8,6,0,60,1,1.503
5,255,20,4,1,0,40,0,1.9658
5,256,80,10,7,0,60,1,2.4997
5,257,40,4,3,0,40,0,1.7921
5,258,80,10,8,0,80,1,1.5967
5,259,40,2,0,0,40,0,1.2194
5,260,20,2,0,0,40,0,1.792
5,261,40,4,2,0,20,0,1.9528
5,262,40,6,1,0,40,0,2.0157
5,263,40,2,2,0,20,0,1.5533
5,264,60,8,5,0,60,1,2.7911
5,265,80,6,5,0,60,0,2.9999
5,266,20,6,0,0,20,1,1.5003
5,267,40,6,3,0,20,0,1.8047
5,268,60,10,7,0,60,1,3.0095
5,269,80,10,8,0,80,1,1.97
5,270,80,10,7,0,80,1,2.8973
5,271,40,2,1,0,40,1,1.4947
5,272,20,8,3,0,20,0,2.3991
5,273,40,10,6,0,20,0,3.3506
5,274,80,10,8,0,60,1,3.151
5,275,40,6,4,0,40,0,3.3762
5,276,60,10,6,0,40,0,2.8767
5,277,80,6,5,0,60,1,3.4286
5,278,40,8,5,0,20,0,3.2067
5,279,40,8,3,0,40,1,3.4298
5,280,80,2,2,0,80,1,2.2854
5,281,40,10,6,0,40,0,3.3251
5,282,40,4,0,0,20,1,2.0613
5,283,40,10,1,0,40,0,2.3703
5,284,80,8,6,0,60,0,3.0608
5,285,20,8,0,0,40,0,2.4924
5,286,20,10,1,0,40,0,1.9781
5,287,40,2,1,0,40,1,1.8462
5,288,80,8,6,0,80,1,2.4253
5,289,60,2,1,0,40,1,1.4377
5,290,20,10,3,0,40,1,1.8985
5,291,60,2,0,0,60,0,2.5272
5,292,20,8,4,0,40,1,3.5291
5,293,20,2,0,0,40,0,1.5443
5,294,80,4,2,0,60,1,2.3648
5,295,60,4,4,0,60,0,1.5508
5,296,60,6,5,0,60,0,2.3348
5,297,20,2,1,0,40,1,1.8853
5,298,40,8,4,0,60,1,2.6464
5,299,40,8,3,0,40,1,3.193
5,300,20,4,0,0,40,0,2.2348
5,301,40,4,0,0,20,1,1.8948
5,302,40,8,4,0,60,0,3.0719
5,303,40,2,1,0,60,1,1.4996
5,304,80,2,0,0,60,0,1.4276
5,305,20,8,2,0,20,1,2.9498
5,306,80,8,6,0,80,1,2.6547
5,307,40,2,2,0,20,0,1.7943
5,308,40,8,2,0,60,0,2.5647
5,309,80,4,4,0,80,1,1.7705
5,310,80,6,6,0,60,0,1.8108
5,311,60,6,5,0,40,0,1.793
5,312,80,4,3,0,60,0,2.4954
5,313,20,4,0,0,40,0,2.7222
5,314,20,6,1,0,20,1,2.4419
5,315,80,2,2,0,60,0,1.0992
5,316,60,2,1,0,60,1,1.2682
5,317,60,2,1,0,60,1,0.98161
5,318,60,2,2,0,60,0,1.0041
5,319,80,4,3,0,80,1,1.5698
5,320,20,10,3,0,20,1,1.8562
6,1,60,8,6,1,60,1,4.0752
6,2,40,8,4,1,40,1,4.356
6,3,20,6,0,1,40,0,2.5111
6,4,40,4,2,1,60,1,3.578
6,5,80,10,8,1,80,1,2.8478
6,6,40,8,5,1,40,0,2.5341
6,7,40,8,3,1,40,1,3.7865
6,8,20,8,2,1,40,0,2.6877
6,9,20,8,2,1,40,0,3.5777
6,10,60,6,3,1,60,1,3.1037
6,11,80,8,7,1,60,0,3.4174
6,12,80,2,2,1,60,0,2.6216
6,13,80,6,3,1,60,0,1.9693
6,14,60,10,3,1,80,0,4.6622
6,15,60,6,3,1,40,1,2.2094
6,16,40,2,2,1,40,0,2.6094
6,17,40,8,2,1,40,NaN,0
6,18,80,2,2,1,80,1,1.4222
6,19,60,6,5,1,60,0,2.7095
6,20,60,4,2,1,60,1,1.8418
6,21,80,4,3,1,80,1,1.5097
6,22,40,10,3,1,40,1,1.8517
6,23,20,6,1,1,40,0,1.4476
6,24,20,10,2,1,20,1,1.7764
6,25,80,10,7,1,80,1,3.0129
6,26,80,4,4,1,60,0,2.0063
6,27,40,2,1,1,20,0,1.607
6,28,40,10,4,1,60,0,2.4643
6,29,20,2,0,1,20,1,1.4504
6,30,20,2,1,1,40,1,2.0898
6,31,40,4,2,1,60,1,1.8602
6,32,20,8,0,1,40,0,2.1925
6,33,40,2,1,1,40,1,1.2243
6,34,20,6,1,1,20,1,1.3193
6,35,40,6,3,1,60,1,1.8199
6,36,80,8,7,1,80,1,2.3801
6,37,60,4,1,1,40,0,3.3385
6,38,80,4,3,1,80,1,3.5609
6,39,40,4,2,1,20,0,1.9279
6,40,40,2,1,1,40,1,1.1083
6,41,80,4,3,1,60,1,3.4987
6,42,80,2,2,1,60,0,1.6348
6,43,60,10,6,1,60,NaN,0
6,44,20,8,1,1,40,0,1.9146
6,45,20,6,3,1,40,1,2.0761
6,46,80,6,5,1,80,1,1.7189
6,47,80,2,2,1,60,0,1.5131
6,48,40,4,3,1,40,0,2.4363
6,49,60,8,6,1,60,0,2.2558
6,50,80,10,8,1,80,1,1.5353
6,51,80,4,4,1,80,1,1.1671
6,52,80,8,7,1,60,0,2.3571
6,53,20,2,0,1,20,1,1.6495
6,54,80,2,2,1,60,0,1.2735
6,55,80,10,8,1,80,1,1.6994
6,56,20,10,3,1,20,1,1.9561
6,57,60,8,6,1,80,1,1.621
6,58,60,8,2,1,80,0,3.1889
6,59,20,6,0,1,40,0,2.5263
6,60,40,2,1,1,20,0,1.5645
6,61,60,2,2,1,80,1,1.0774
6,62,60,8,6,1,60,1,2.7588
6,63,60,4,1,1,40,0,1.7603
6,64,80,8,4,1,80,0,2.504
6,65,80,6,5,1,60,0,2.2736
6,66,60,10,9,1,40,0,1.8506
6,67,20,10,1,1,20,1,1.8957
6,68,60,6,3,1,40,0,1.7212
6,69,40,8,4,1,40,1,1.8007
6,70,40,10,4,1,60,1,3.0563
6,71,40,8,7,1,20,0,1.4755
6,72,20,10,4,1,40,1,2.8258
6,73,60,2,1,1,60,1,1.9558
6,74,20,2,1,1,20,0,1.9421
6,75,80,2,2,1,80,1,0.98973
6,76,60,2,2,1,80,1,1.198
6,77,60,2,1,1,80,0,1.4481
6,78,80,8,7,1,60,0,2.0626
6,79,60,6,6,1,80,1,1.5962
6,80,20,8,3,1,40,1,2.7522
6,81,60,2,1,1,60,1,1.1909
6,82,60,8,6,1,40,0,1.5921
6,83,80,10,7,1,60,0,1.6741
6,84,80,10,10,1,80,1,0.96105
6,85,40,6,1,1,20,1,2.1295
6,86,80,4,4,1,80,1,1.0618
6,87,40,10,5,1,40,0,2.9365
6,88,40,6,2,1,60,0,1.9046
6,89,20,8,3,1,20,1,1.9224
6,90,40,6,3,1,20,0,1.8738
6,91,60,2,1,1,60,1,1.1713
6,92,40,8,4,1,40,0,3.3034
6,93,40,6,2,1,40,1,1.717
6,94,60,2,1,1,40,1,1.3277
6,95,60,8,3,1,60,1,1.7195
6,96,20,4,0,1,20,1,1.2195
6,97,80,6,6,1,80,1,1.2366
6,98,60,4,3,1,40,0,2.4657
6,99,40,10,6,1,20,0,2.1503
6,100,40,4,1,1,60,0,2.1333
6,101,60,10,7,1,60,1,2.3808
6,102,20,8,1,1,40,0,1.381
6,103,60,6,3,1,60,1,3.091
6,104,20,10,4,1,20,0,2.7727
6,105,40,2,0,1,40,0,1.4099
6,106,60,10,7,1,80,1,1.7869
6,107,20,4,1,1,20,1,2.4597
6,108,20,6,1,1,40,0,1.4724
6,109,80,2,2,1,80,1,1.2424
6,110,40,10,2,1,40,0,1.6574
6,111,20,6,1,1,20,1,1.954
6,112,60,10,7,1,80,1,2.8198
6,113,60,10,7,1,60,0,1.962
6,114,40,8,1,1,60,0,2.4721
6,115,60,4,2,1,60,1,1.4719
6,116,40,6,1,1,40,0,2.7845
6,117,20,2,0,1,20,1,1.0403
6,118,40,4,4,1,40,0,1.2387
6,119,40,10,3,1,20,0,3.0646
6,120,60,10,4,1,40,1,2.9705
6,121,20,4,0,1,20,1,1.1063
6,122,80,6,6,1,80,1,1.4347
6,123,20,10,2,1,20,1,1.9253
6,124,60,2,2,1,60,0,1.6611
6,125,80,6,4,1,80,1,1.7307
6,126,60,8,4,1,60,1,2.3375
6,127,80,6,5,1,80,1,1.3601
6,128,80,8,5,1,60,1,2.6659
6,129,40,4,2,1,40,1,1.7949
6,130,80,8,7,1,60,0,2.3296
6,131,20,10,3,1,40,1,3.0502
6,132,60,4,3,1,40,0,1.7432
6,133,60,6,4,1,60,1,2.5336
6,134,80,10,9,1,60,0,1.8967
6,135,40,4,1,1,60,0,1.8889
6,136,60,4,3,1,60,0,2.363
6,137,80,6,5,1,60,0,2.281
6,138,20,6,2,1,20,1,3.0586
6,139,20,2,1,1,40,1,1.6507
6,140,60,6,3,1,60,1,2.6541
6,141,20,4,0,1,40,0,1.5975
6,142,80,10,8,1,60,0,2.8709
6,143,20,4,0,1,40,0,1.473
6,144,80,8,7,1,60,0,2.3817
6,145,80,4,4,1,60,0,1.2233
6,146,20,8,4,1,20,0,2.4765
6,147,20,4,1,1,20,1,2.0577
6,148,40,6,3,1,20,0,1.9553
6,149,40,2,1,1,40,1,1.1737
6,150,20,4,0,1,40,0,1.2778
6,151,80,2,2,1,60,0,1.8164
6,152,20,2,1,1,20,0,1.4407
6,153,20,10,1,1,20,1,1.4701
6,154,40,10,2,1,40,0,2.2597
6,155,40,6,2,1,20,0,2.7746
6,156,60,4,2,1,80,0,2.6454
6,157,80,4,4,1,80,1,1.2668
6,158,40,2,2,1,60,0,1.3214
6,159,20,2,0,1,40,0,1.4755
6,160,20,4,0,1,40,0,1.2474
6,161,80,8,6,0,60,0,2.2063
6,162,80,4,4,0,80,1,1.4354
6,163,60,8,7,0,40,0,1.351
6,164,40,4,3,0,60,0,1.8424
6,165,80,2,1,0,80,0,1.6536
6,166,80,2,2,0,80,1,1.1495
6,167,60,8,4,0,80,0,3.3349
6,168,20,10,2,0,20,1,2.6814
6,169,40,8,3,0,40,1,3.2809
6,170,20,2,1,0,20,0,1.112
6,171,80,10,8,0,80,1,2.0384
6,172,60,4,1,0,60,0,2.2762
6,173,20,6,1,0,40,0,1.8588
6,174,80,10,6,0,60,1,2.5316
6,175,40,8,4,0,20,0,2.5785
6,176,20,6,1,0,40,0,1.7703
6,177,20,8,1,0,20,1,1.4697
6,178,60,6,5,0,60,0,2.5331
6,179,80,2,2,0,60,0,1.2038
6,180,60,2,2,0,60,0,1.4643
6,181,20,4,1,0,20,0,3.044
6,182,80,4,3,0,80,1,1.9658
6,183,60,2,2,0,40,0,1.151
6,184,40,2,1,0,40,1,1.2863
6,185,40,10,5,0,60,1,2.585
6,186,40,2,1,0,40,1,1.3936
6,187,20,4,0,0,40,0,1.6768
6,188,60,10,3,0,60,0,3.036
6,189,60,10,5,0,60,1,3.6122
6,190,80,6,5,0,60,0,2.3865
6,191,40,4,0,0,60,0,1.7542
6,192,40,10,4,0,40,1,2.4746
6,193,80,8,6,0,80,1,2.6594
6,194,20,6,1,0,20,1,2.0632
6,195,20,8,0,0,40,0,1.4729
6,196,80,8,6,0,60,0,2.6209
6,197,60,4,2,0,60,1,1.6597
6,198,20,6,0,0,40,0,1.3751
6,199,60,6,1,0,80,1,1.3915
6,200,80,8,8,0,60,0,1.2786
6,201,20,6,3,0,40,1,2.9167
6,202,40,6,1,0,60,0,1.6453
6,203,60,6,3,0,40,1,2.0827
6,204,40,10,2,0,60,0,2.2864
6,205,80,4,4,0,60,0,1.2012
6,206,80,6,4,0,80,0,1.5415
6,207,40,10,6,0,20,0,2.0471
6,208,80,2,2,0,80,1,1.0105
6,209,40,10,4,0,60,0,1.2949
6,210,40,2,0,0,40,0,2.1287
6,211,20,4,2,0,40,1,1.7182
6,212,40,2,0,0,60,0,1.4846
6,213,60,4,4,0,60,0,1.4403
6,214,60,2,2,0,80,1,2.2312
6,215,80,4,4,0,60,0,1.6793
6,216,60,2,2,0,60,0,1.521
6,217,60,4,2,0,60,1,1.2406
6,218,60,10,8,0,60,0,2.4726
6,219,20,10,3,0,20,1,2.1756
6,220,20,2,1,0,20,0,1.1693
6,221,20,10,0,0,20,1,1.4484
6,222,20,4,0,0,40,0,1.2968
6,223,60,4,2,0,80,0,1.2359
6,224,20,2,0,0,40,0,1.1609
6,225,40,4,1,0,40,0,1.651
6,226,60,10,3,0,80,0,1.7051
6,227,60,2,1,0,80,0,1.2531
6,228,60,4,2,0,80,0,1.6482
6,229,80,8,7,0,60,0,1.9481
6,230,40,6,1,0,60,0,2.2184
6,231,60,2,2,0,40,0,1.4757
6,232,60,2,1,0,60,1,2.3047
6,233,40,4,1,0,20,1,2.2321
6,234,80,10,8,0,80,1,1.7536
6,235,40,10,5,0,40,1,2.5754
6,236,80,2,2,0,80,1,1.0469
6,237,60,6,5,0,60,0,1.4349
6,238,60,4,1,0,60,0,1.5951
6,239,40,8,3,0,40,1,2.3009
6,240,60,10,8,0,60,0,2.9958
6,241,40,2,1,0,40,1,1.0211
6,242,80,4,3,0,80,1,1.7684
6,243,60,8,3,0,40,0,2.7546
6,244,80,6,4,0,80,0,3.5372
6,245,20,8,2,0,20,1,2.0634
6,246,60,6,1,0,80,0,2.2294
6,247,60,8,4,0,60,1,2.3629
6,248,80,6,4,0,60,1,1.9131
6,249,80,4,4,0,80,1,1.2571
6,250,60,10,6,0,60,1,2.3638
6,251,80,6,5,0,60,0,1.5667
6,252,40,6,1,0,40,1,3.0407
6,253,60,6,3,0,40,1,2.091
6,254,80,10,8,0,60,0,3.7787
6,255,20,10,3,0,40,1,1.9085
6,256,20,2,1,0,20,0,2.4489
6,257,80,2,2,0,80,1,1.0249
6,258,60,2,2,0,80,1,0.81456
6,259,40,8,1,0,20,1,2.0837
6,260,60,8,5,0,60,1,2.4574
6,261,40,4,0,0,40,0,1.3483
6,262,20,10,3,0,20,0,3.0395
6,263,20,8,1,0,20,1,2.3851
6,264,20,8,2,0,20,1,3.0815
6,265,20,6,1,0,40,0,2.5461
6,266,20,10,0,0,40,0,1.6138
6,267,20,6,1,0,20,1,3.0813
6,268,40,6,2,0,40,1,2.7834
6,269,20,8,4,0,20,0,3.621
6,270,80,10,6,0,80,0,3.5343
6,271,80,8,6,0,60,1,3.5434
6,272,20,2,0,0,20,1,1.3373
6,273,40,10,3,0,40,0,3.2308
6,274,20,4,1,0,20,1,1.3419
6,275,80,8,6,0,80,1,3.2063
6,276,20,4,0,0,20,1,1.5907
6,277,80,10,9,0,60,0,2.0324
6,278,60,6,4,0,60,1,3.1929
6,279,40,6,1,0,20,1,2.4047
6,280,40,4,0,0,40,0,1.4065
6,281,20,2,0,0,20,1,1.7597
6,282,40,6,1,0,40,0,2.706
6,283,40,2,0,0,40,0,1.454
6,284,80,6,6,0,60,0,1.7994
6,285,40,2,1,0,20,0,1.5055
6,286,60,4,3,0,40,0,1.8723
6,287,20,4,1,0,20,1,1.8021
6,288,80,2,1,0,60,1,1.0384
6,289,40,4,1,0,40,1,2.8484
6,290,80,10,7,0,80,1,2.5671
6,291,40,10,3,0,40,0,2.6504
6,292,60,6,3,0,40,1,1.8073
6,293,80,6,5,0,60,0,2.2102
6,294,80,4,4,0,80,1,1.2145
6,295,40,4,1,0,40,0,2.4666
6,296,80,6,4,0,80,0,3.3446
6,297,20,6,0,0,40,0,1.6524
6,298,20,2,1,0,40,1,1.2874
6,299,80,8,8,0,80,1,1.2896
6,300,60,10,5,0,40,1,3.1289
6,301,40,6,3,0,20,0,1.8062
6,302,40,8,3,0,20,0,2.2516
6,303,40,8,5,0,60,1,4.5396
6,304,20,10,2,0,40,0,2.5871
6,305,40,8,4,0,20,0,2.6321
6,306,40,2,1,0,60,1,1.1061
6,307,60,10,7,0,80,1,2.6045
6,308,60,8,6,0,60,1,4.0679
6,309,60,8,2,0,40,0,3.3187
6,310,20,8,0,0,40,0,1.9906
6,311,20,10,2,0,40,0,2.2751
6,312,80,4,3,0,60,0,2.0565
6,313,20,8,1,0,40,0,2.2733
6,314,80,2,2,0,60,0,1.2746
6,315,40,8,3,0,20,0,3.6073
6,316,40,6,1,0,40,0,2.0625
6,317,20,4,1,0,40,0,1.3283
6,318,60,8,3,0,60,0,2.5839
6,319,20,2,1,0,40,1,1.0645
6,320,80,10,9,0,60,0,2.6354
7,1,60,6,3,1,60,NaN,0
7,2,80,8,5,1,80,1,1.7225
7,3,20,6,0,1,40,0,1.274
7,4,40,2,0,1,60,0,2.2209
7,5,40,2,0,1,20,0,1.1507
7,6,80,2,1,1,80,1,2.4855
7,7,40,10,4,1,40,0,3.2666
7,8,80,6,6,1,60,1,2.7856
7,9,60,10,5,1,60,1,1.6641
7,10,40,6,1,1,60,1,3.0349
7,11,80,10,10,1,60,1,0.69634
7,12,40,8,1,1,20,0,2.5343
7,13,40,8,5,1,40,0,2.8357
7,14,80,6,2,1,60,1,0.70693
7,15,60,2,2,1,60,1,2.2241
7,16,40,10,4,1,40,0,2.374
7,17,20,4,1,1,40,0,1.7829
7,18,20,8,2,1,20,1,1.4746
7,19,40,10,3,1,20,0,2.4786
7,20,20,4,0,1,40,0,3.6731
7,21,40,10,3,1,40,0,2.1308
7,22,60,8,6,1,40,0,2.4889
7,23,80,8,6,1,60,1,2.0842
7,24,80,4,4,1,80,0,1.3223
7,25,60,6,3,1,40,0,1.5094
7,26,40,6,3,1,40,1,2.3535
7,27,60,4,3,1,80,1,1.9444
7,28,40,2,1,1,20,0,2.4248
7,29,80,2,1,1,60,1,1.8079
7,30,40,2,1,1,40,0,1.278
7,31,80,8,7,1,80,0,1.1342
7,32,20,4,1,1,20,1,3.6515
7,33,40,4,1,1,20,0,1.8769
7,34,40,4,0,1,40,1,3.9888
7,35,80,2,2,1,80,1,1.8179
7,36,60,6,4,1,60,0,2.0418
7,37,80,10,8,1,60,1,1.554
7,38,20,4,1,1,40,0,1.9044
7,39,60,4,2,1,80,0,2.8895
7,40,80,2,1,1,60,1,1.1687
7,41,40,8,1,1,40,1,3.0344
7,42,20,6,2,1,40,0,0.8005
7,43,40,10,3,1,60,0,1.8799
7,44,60,4,3,1,80,0,1.4323
7,45,80,4,3,1,80,0,1.3356
7,46,40,6,1,1,40,1,4.1506
7,47,40,4,2,1,40,1,1.4251
7,48,40,6,2,1,40,1,1.0788
7,49,60,2,2,1,60,1,1.8454
7,50,80,8,6,1,80,1,2.6821
7,51,80,8,7,1,80,1,1.2267
7,52,60,6,5,1,60,1,3.0543
7,53,60,2,2,1,80,0,2.651
7,54,60,8,4,1,80,0,3.0219
7,55,20,2,1,1,20,1,1.818
7,56,80,6,5,1,80,0,3.9505
7,57,80,8,5,1,60,1,2.0335
7,58,20,10,5,1,40,0,3.1852
7,59,20,6,0,1,20,1,4.0841
7,60,80,10,10,1,60,1,2.7418
7,61,60,4,3,1,60,1,2.6816
7,62,20,4,0,1,40,0,2.5309
7,63,80,6,6,1,80,0,3.0806
7,64,20,2,0,1,40,0,1.9919
7,65,20,8,2,1,20,1,1.9983
7,66,20,6,1,1,40,0,2.8925
7,67,80,10,10,1,80,1,3.0582
7,68,40,6,5,1,20,0,3.009
7,69,20,6,1,1,20,1,2.4109
7,70,60,10,5,1,60,1,4.4201
7,71,20,2,0,1,20,1,1.8189
7,72,80,10,9,1,60,1,4.377
7,73,40,6,1,1,40,0,4.525
7,74,60,10,5,1,80,0,2.6161
7,75,40,4,1,1,60,0,2.4657
7,76,80,4,3,1,80,1,1.5568
7,77,80,6,4,1,60,1,3.0094
7,78,20,4,2,1,40,1,3.0152
7,79,80,2,2,1,60,1,3.3257
7,80,20,10,1,1,20,1,1.6704
7,81,60,6,3,1,80,0,3.4384
7,82,40,2,1,1,20,0,2.9696
7,83,40,8,3,1,40,0,3.4871
7,84,20,8,2,1,40,0,2.6671
7,85,20,8,3,1,40,0,2.0682
7,86,40,2,1,1,60,1,2.702
7,87,60,2,1,1,60,1,2.7098
7,88,20,8,3,1,40,1,4.9339
7,89,80,4,3,1,80,1,2.2292
7,90,60,4,3,1,60,1,1.5611
7,91,60,10,6,1,80,1,2.6646
7,92,60,6,3,1,60,0,2.4131
7,93,40,2,0,1,40,0,2.9082
7,94,20,4,1,1,40,1,2.6723
7,95,20,4,1,1,20,1,1.439
7,96,60,8,6,1,60,1,3.8545
7,97,80,6,6,1,60,1,2.3408
7,98,20,8,1,1,40,1,4.104
7,99,80,4,2,1,80,0,2.6332
7,100,40,8,3,1,40,1,3.4256
7,101,60,10,6,1,80,1,2.9215
7,102,20,6,1,1,40,1,2.8791
7,103,60,8,5,1,40,0,2.2558
7,104,40,10,2,1,60,0,1.6213
7,105,40,4,2,1,20,0,2.3287
7,106,20,10,3,1,40,1,3.9726
7,107,40,10,4,1,60,0,2.4944
7,108,40,8,3,1,40,1,3.6777
7,109,60,10,6,1,60,1,1.7923
7,110,60,8,6,1,60,1,3.7099
7,111,60,8,3,1,60,0,3.7695
7,112,60,10,4,1,40,0,3.1534
7,113,80,10,9,1,60,1,1.7144
7,114,40,8,4,1,40,1,3.562
7,115,20,10,2,1,40,1,4.323
7,116,20,10,1,1,20,1,2.3972
7,117,80,10,7,1,80,1,3.7434
7,118,20,2,0,1,40,1,1.5121
7,119,60,6,3,1,80,0,3.3797
7,120,80,4,3,1,80,1,1.7039
7,121,80,10,7,1,60,1,2.593
7,122,80,2,1,1,80,0,1.6049
7,123,60,6,4,1,40,0,2.9601
7,124,60,4,1,1,40,0,2.2742
7,125,80,4,4,1,60,1,2.277
7,126,20,10,1,1,20,1,1.4314
7,127,80,2,2,1,80,1,0.99196
7,128,20,2,0,1,20,1,1.3676
7,129,60,2,1,1,40,1,1.8588
7,130,40,6,2,1,20,0,1.7412
7,131,20,10,2,1,20,1,1.7248
7,132,60,4,2,1,40,1,2.3676
7,133,80,6,4,1,60,1,2.0649
7,134,20,6,2,1,20,1,0.9278
7,135,40,2,2,1,60,1,3.1332
7,136,60,8,2,1,60,0,2.1924
7,137,60,2,0,1,60,0,2.3995
7,138,60,8,3,1,40,1,2.6749
7,139,20,2,1,1,20,0,1.7218
7,140,60,4,2,1,60,1,2.3326
7,141,80,8,7,1,60,1,2.5684
7,142,20,2,0,1,40,1,2.8376
7,143,40,4,2,1,60,1,3.0105
7,144,40,10,3,1,60,0,4.3509
7,145,20,6,1,1,20,1,2.0162
7,146,40,6,1,1,40,0,2.5881
7,147,20,8,1,1,20,1,2.0036
7,148,20,8,4,1,20,0,2.71
7,149,80,8,7,1,60,1,2.2773
7,150,80,2,2,1,60,1,1.1411
7,151,40,8,2,1,40,0,3.5944
7,152,20,2,2,1,20,0,1.3302
7,153,80,6,5,1,80,1,2.1387
7,154,60,2,2,1,60,1,1.0502
7,155,40,4,2,1,20,0,1.712
7,156,60,2,2,1,60,1,2.0923
7,157,60,10,6,1,40,0,3.7545
7,158,20,10,3,1,20,1,1.8184
7,159,40,4,1,1,40,1,4.5079
7,160,80,4,3,1,80,1,3.4594
7,161,80,4,4,0,60,1,1.9527
7,162,80,2,2,0,80,1,1.1588
7,163,60,6,4,0,60,1,4.8211
7,164,40,10,2,0,20,1,3.0231
7,165,80,8,4,0,80,0,3.631
7,166,60,6,3,0,40,1,3.8607
7,167,60,8,3,0,60,0,4.1508
7,168,80,6,5,0,60,1,2.9387
7,169,20,10,3,0,20,1,2.4259
7,170,80,8,6,0,80,NaN,0
7,171,20,2,0,0,20,1,3.2589
7,172,40,8,2,0,60,1,1.2623
7,173,20,8,0,0,20,0,0.57124
7,174,80,8,6,0,80,1,1.6117
7,175,60,4,4,0,40,0,2.3177
7,176,60,10,5,0,80,1,2.1226
7,177,60,2,2,0,60,1,0.95691
7,178,60,2,1,0,80,0,1.1653
7,179,20,6,0,0,40,0,2.7579
7,180,20,2,1,0,20,0,1.3253
7,181,60,10,6,0,60,0,3.3004
7,182,40,8,3,0,20,1,3.5847
7,183,80,6,5,0,60,1,1.5729
7,184,20,10,3,0,40,0,3.2928
7,185,40,4,2,0,40,1,2.5085
7,186,60,10,5,0,40,1,3.2869
7,187,60,2,2,0,80,1,1.7583
7,188,20,10,0,0,20,1,3.048
7,189,80,8,7,0,80,1,2.1272
7,190,80,8,4,0,60,1,2.7542
7,191,20,2,1,0,20,0,1.9048
7,192,40,2,0,0,40,0,1.8009
7,193,60,6,3,0,60,1,3.1555
7,194,40,2,0,0,20,1,1.9695
7,195,40,6,3,0,40,1,3.6633
7,196,60,4,2,0,40,1,2.967
7,197,40,10,5,0,60,1,2.3492
7,198,20,8,3,0,40,1,2.5158
7,199,80,6,6,0,80,1,1.7162
7,200,60,10,7,0,80,1,2.3841
7,201,20,4,1,0,20,1,2.8553
7,202,20,2,0,0,40,1,1.9454
7,203,60,8,4,0,60,1,3.9857
7,204,60,2,1,0,40,1,1.391
7,205,20,6,1,0,20,1,4.0333
7,206,80,4,1,0,80,0,2.3572
7,207,80,10,8,0,60,1,3.3546
7,208,80,6,5,0,80,1,2.2156
7,209,20,10,2,0,40,1,2.6094
7,210,20,8,4,0,20,0,3.1699
7,211,40,10,6,0,60,1,3.1138
7,212,80,10,6,0,80,0,2.9688
7,213,40,8,5,0,60,1,2.9019
7,214,80,10,9,0,60,1,1.8388
7,215,40,4,3,0,40,0,2.3927
7,216,40,6,2,0,40,1,3.2614
7,217,40,2,1,0,40,1,1.7856
7,218,20,6,0,0,40,1,2.5699
7,219,60,4,2,0,40,1,2.7734
7,220,60,6,4,0,60,0,3.8201
7,221,80,10,7,0,60,1,1.8557
7,222,60,4,3,0,60,1,2.7783
7,223,80,2,2,0,60,1,1.9065
7,224,20,8,0,0,20,1,2.1505
7,225,40,4,2,0,40,1,2.8338
7,226,40,4,1,0,40,1,2.1968
7,227,60,6,1,0,60,0,2.1263
7,228,20,6,1,0,40,1,2.4232
7,229,40,2,1,0,20,0,1.3366
7,230,60,10,8,0,60,1,1.6552
7,231,20,4,1,0,40,1,1.89
7,232,80,4,3,0,80,1,2.9811
7,233,80,4,3,0,80,1,2.2307
7,234,20,10,4,0,40,1,3.1447
7,235,60,2,1,0,40,1,3.8338
7,236,60,8,5,0,60,1,4.5509
7,237,20,10,2,0,40,1,2.0454
7,238,60,4,3,0,80,1,1.88
7,239,60,10,7,0,60,1,3.9517
7,240,80,4,3,0,60,1,1.9772
7,241,80,4,2,0,60,1,2.2003
7,242,60,8,3,0,80,0,3.9155
7,243,40,8,2,0,20,1,2.4453
7,244,40,4,2,0,40,1,2.3129
7,245,40,2,0,0,40,1,1.2188
7,246,20,4,1,0,20,1,1.4788
7,247,20,2,0,0,20,1,0.86804
7,248,40,6,2,0,40,1,2.365
7,249,40,8,5,0,40,1,4.4223
7,250,20,6,3,0,20,0,1.8218
7,251,80,2,1,0,60,1,2.7015
7,252,40,10,2,0,60,0,2.6771
7,253,20,4,2,0,20,0,2.3426
7,254,20,8,2,0,40,1,3.4318
7,255,80,2,2,0,80,1,1.8318
7,256,80,6,4,0,60,1,2.4972
7,257,80,10,8,0,80,1,2.5132
7,258,40,2,1,0,20,0,1.5761
7,259,20,2,0,0,20,0,2.323
7,260,60,8,4,0,60,0,4.7204
7,261,60,6,3,0,60,1,3.5845
7,262,20,4,3,0,40,1,3.5496
7,263,20,2,1,0,20,0,2.8031
7,264,20,4,2,0,20,0,2.7714
7,265,40,6,3,0,40,1,1.6215
7,266,40,10,4,0,60,0,2.8576
7,267,80,8,7,0,60,1,1.7277
7,268,80,4,2,0,80,0,3.3375
7,269,40,4,1,0,40,1,4.6498
7,270,60,8,2,0,60,0,3.276
7,271,60,2,1,0,40,1,2.9384
7,272,20,4,0,0,40,0,3.3566
7,273,60,8,3,0,60,0,4.1537
7,274,40,8,4,0,60,1,1.8818
7,275,80,8,5,0,60,1,2.6834
7,276,80,8,5,0,80,1,2.4226
7,277,60,10,4,0,60,0,4.7082
7,278,20,8,1,0,20,1,1.7307
7,279,80,2,2,0,60,1,1.6061
7,280,20,10,3,0,20,1,3.5322
7,281,60,10,7,0,60,1,2.8836
7,282,40,4,1,0,40,1,3.1203
7,283,20,6,1,0,40,0,3.2463
7,284,20,8,3,0,40,1,4.275
7,285,20,8,1,0,40,0,3.0527
7,286,40,8,4,0,20,1,3.8009
7,287,40,10,3,0,60,0,2.4117
7,288,80,2,2,0,80,1,2.8261
7,289,40,6,2,0,40,1,2.7319
7,290,40,6,2,0,60,1,2.1738
7,291,40,6,3,0,20,0,2.0582
7,292,60,4,3,0,80,1,1.5513
7,293,80,10,10,0,60,1,2.2854
7,294,80,6,5,0,60,1,3.2175
7,295,40,4,2,0,40,1,1.9972
7,296,40,2,2,0,40,0,1.3288
7,297,60,6,3,0,60,0,4.0965
7,298,40,2,0,0,60,1,1.7651
7,299,80,2,2,0,80,1,1.3147
7,300,80,10,9,0,60,1,2.8744
7,301,80,6,2,0,80,0,2.9464
7,302,20,6,2,0,40,1,2.6054
7,303,60,4,4,0,80,1,2.2977
7,304,60,8,4,0,40,1,2.9296
7,305,20,6,2,0,40,1,4.4928
7,306,40,10,4,0,20,1,2.1753
7,307,80,2,1,0,60,1,1.3749
7,308,40,8,2,0,40,0,4.0359
7,309,40,6,2,0,20,0,2.4391
7,310,60,4,3,0,80,1,2.4237
7,311,80,6,5,0,80,1,4.2296
7,312,20,4,0,0,40,NaN,0
7,313,40,10,2,0,40,1,2.7639
7,314,80,4,4,0,60,1,1.4538
7,315,60,2,1,0,80,0,2.7481
7,316,80,10,8,0,80,1,1.5158
7,317,60,2,1,0,40,1,1.2462
7,318,60,6,4,0,60,0,3.2929
7,319,20,10,4,0,20,1,0.36738
7,320,20,2,0,0,40,1,0.42682
8,1,40,10,3,1,60,0,4.0025
8,2,80,8,7,1,80,1,3.1276
8,3,40,2,1,1,40,1,4.1337
8,4,80,4,4,1,60,1,1.9666
8,5,40,10,2,1,20,1,2.729
8,6,60,4,3,1,40,0,3.116
8,7,40,8,3,1,40,1,4.9349
8,8,20,10,3,1,20,1,2.9494
8,9,80,10,8,1,80,1,3.7212
8,10,60,2,1,1,60,1,2.8431
8,11,40,8,4,1,20,0,4.8883
8,12,40,4,2,1,20,0,2.5491
8,13,80,6,6,1,80,1,2.0586
8,14,80,6,5,1,60,0,3.6888
8,15,20,6,1,1,20,1,3.3591
8,16,60,10,7,1,40,NaN,0
8,17,20,10,0,1,40,0,1.7539
8,18,60,2,1,1,80,0,2.6305
8,19,60,6,2,1,60,0,4.202
8,20,60,4,4,1,80,1,2.224
8,21,20,10,3,1,40,0,4.1739
8,22,60,8,3,1,80,0,2.5936
8,23,40,6,3,1,40,1,2.2599
8,24,60,4,2,1,80,0,1.4675
8,25,60,8,4,1,60,1,2.3426
8,26,80,2,2,1,80,1,1.1886
8,27,60,2,2,1,60,0,1.6452
8,28,20,8,1,1,40,NaN,0
8,29,60,2,2,1,60,0,2.6272
8,30,80,6,5,1,60,NaN,0
8,31,80,2,2,1,80,1,1.6158
8,32,60,10,5,1,60,1,2.9251
8,33,20,4,1,1,20,1,2.5896
8,34,40,2,1,1,60,0,1.392
8,35,60,8,4,1,60,1,3.3423
8,36,60,2,1,1,60,1,1.8483
8,37,20,4,1,1,40,0,4.3399
8,38,60,4,2,1,80,0,2.6223
8,39,60,10,8,1,60,1,2.499
8,40,80,6,4,1,60,NaN,0
8,41,60,4,1,1,60,0,1.2987
8,42,80,4,4,1,60,1,1.1664
8,43,80,4,3,1,60,0,4.793
8,44,40,4,1,1,60,0,1.5232
8,45,20,2,0,1,40,0,3.1544
8,46,80,2,2,1,60,0,2.568
8,47,20,8,4,1,40,0,4.8513
8,48,20,6,0,1,20,1,1.2412
8,49,80,10,9,1,60,0,2.1163
8,50,80,2,2,1,80,1,1.3524
8,51,20,6,1,1,40,0,2.4941
8,52,20,10,2,1,40,0,1.4734
8,53,60,8,4,1,40,0,3.3553
8,54,20,4,0,1,20,1,1.4093
8,55,40,4,3,1,40,0,3.0651
8,56,60,2,2,1,40,0,2.0943
8,57,80,10,7,1,60,0,3.0562
8,58,40,2,1,1,40,1,2.1834
8,59,60,10,6,1,60,1,2.1395
8,60,20,10,2,1,20,1,1.8283
8,61,20,4,1,1,20,1,2.0046
8,62,80,2,1,1,80,0,3.008
8,63,80,10,7,1,80,1,3.3055
8,64,40,2,2,1,40,0,1.8728
8,65,60,6,4,1,60,1,2.9482
8,66,20,8,3,1,20,0,3.8962
8,67,80,2,1,1,80,0,1.5877
8,68,40,4,3,1,20,0,3.4408
8,69,60,8,4,1,80,0,1.6828
8,70,80,8,8,1,80,1,2.4503
8,71,40,8,6,1,40,0,3.2909
8,72,60,8,6,1,40,0,3.184
8,73,20,6,2,1,20,1,4.3117
8,74,40,8,2,1,40,0,3.1424
8,75,20,6,3,1,20,0,1.5995
8,76,80,10,10,1,80,1,2.3012
8,77,80,4,4,1,80,1,1.7274
8,78,20,2,1,1,20,0,3.9333
8,79,40,8,3,1,20,0,3.4254
8,80,40,2,2,1,40,0,1.1818
8,81,20,8,5,1,20,0,2.3066
8,82,40,6,3,1,40,1,1.767
8,83,20,2,0,1,20,1,1.1267
8,84,20,10,3,1,40,0,2.4212
8,85,80,8,6,1,60,0,3.4888
8,86,80,10,7,1,80,1,2.7533
8,87,40,4,1,1,60,0,2.0596
8,88,80,8,8,1,60,0,2.149
8,89,20,8,2,1,20,1,4.1291
8,90,20,4,0,1,40,1,0.88074
8,91,40,6,3,1,40,1,2.168
8,92,40,6,3,1,60,0,2.2134
8,93,40,10,4,1,60,0,2.4353
8,94,20,8,1,1,40,0,2.7041
8,95,80,10,7,1,60,1,3.8121
8,96,80,4,3,1,60,0,3.937
8,97,40,8,2,1,20,1,4.1132
8,98,80,6,5,1,80,1,1.8396
8,99,40,8,2,1,60,0,2.2186
8,100,60,6,5,1,80,1,3.076
8,101,80,8,7,1,80,1,1.8357
8,102,40,2,1,1,40,1,1.8812
8,103,40,8,0,1,40,0,1.842
8,104,20,4,2,1,40,1,2.726
8,105,40,10,5,1,20,0,2.6886
8,106,20,2,1,1,20,0,2.1096
8,107,20,8,1,1,20,1,1.1673
8,108,40,2,2,1,40,0,1.363
8,109,40,6,2,1,20,0,2.5788
8,110,60,6,4,1,60,1,2.5783
8,111,60,8,1,1,60,0,1.7435
8,112,20,2,1,1,40,1,3.1619
8,113,80,6,5,1,60,0,1.8446
8,114,60,6,6,1,80,1,1.9927
8,115,60,4,1,1,60,0,1.2823
8,116,80,2,2,1,80,1,1.1772
8,117,80,4,4,1,60,0,1.3935
8,118,20,10,2,1,40,0,2.6568
8,119,80,10,7,1,60,0,3.2246
8,120,40,6,3,1,40,1,1.6189
8,121,80,6,5,1,80,1,1.2546
8,122,80,4,4,1,80,1,1.1466
8,123,60,6,3,1,40,1,3.3511
8,124,80,8,8,1,60,1,1.0694
8,125,80,8,6,1,60,0,3.0783
8,126,40,6,2,1,60,0,2.7384
8,127,20,4,2,1,40,1,2.158
8,128,60,4,1,1,60,0,2.7345
8,129,20,4,3,1,40,0,1.8693
8,130,60,8,1,1,40,0,2.8009
8,131,20,2,0,1,40,0,1.5894
8,132,20,10,0,1,40,0,1.4081
8,133,80,2,2,1,80,1,1.7804
8,134,40,10,2,1,40,0,3.0466
8,135,60,6,1,1,60,0,4.4464
8,136,20,8,1,1,20,1,2.804
8,137,60,10,5,1,40,1,2.9197
8,138,60,6,5,1,80,1,2.0095
8,139,20,2,0,1,20,1,1.3676
8,140,20,2,2,1,40,0,2.015
8,141,60,4,4,1,60,0,1.4547
8,142,60,10,7,1,40,0,2.8316
8,143,80,4,3,1,60,0,2.3635
8,144,40,10,5,1,60,1,3.0819
8,145,20,6,0,1,20,1,1.4148
8,146,40,2,1,1,40,1,3.0544
8,147,20,6,1,1,40,0,2.2731
8,148,40,4,1,1,20,1,1.6353
8,149,80,8,7,1,60,0,2.5906
8,150,60,10,7,1,80,1,3.4351
8,151,60,2,0,1,40,0,0.94396
8,152,40,10,1,1,40,0,1.2169
8,153,40,6,2,1,20,0,3.1712
8,154,60,10,7,1,60,1,2.6013
8,155,40,4,1,1,60,0,2.1764
8,156,60,2,1,1,60,0,1.6132
8,157,40,10,2,1,40,0,2.7588
8,158,20,6,1,1,20,1,1.3455
8,159,80,6,5,1,80,1,1.219
8,160,40,4,2,1,40,1,1.9712
8,161,80,8,5,0,60,1,2.7951
8,162,60,10,6,0,60,1,3.5183
8,163,80,10,8,0,80,1,3.1271
8,164,20,8,3,0,40,1,2.2832
8,165,60,2,2,0,60,0,1.4053
8,166,80,2,2,0,60,0,1.4573
8,167,20,6,3,0,20,0,3.5321
8,168,60,2,1,0,60,1,3.86
8,169,80,2,2,0,80,1,1.4778
8,170,60,4,3,0,40,0,3.0017
8,171,60,4,4,0,60,0,1.446
8,172,80,8,4,0,60,1,3.741
8,173,40,4,0,0,40,0,1.7389
8,174,40,10,4,0,40,1,2.2
8,175,60,2,1,0,60,1,1.4319
8,176,20,8,2,0,40,0,4.9465
8,177,40,2,0,0,60,0,1.0372
8,178,40,6,0,0,20,1,1.8642
8,179,60,2,1,0,40,1,1.2301
8,180,60,10,7,0,80,1,3.2572
8,181,40,2,1,0,20,0,1.3413
8,182,40,6,2,0,60,0,3.4686
8,183,40,6,3,0,20,0,1.973
8,184,60,4,2,0,80,0,3.2054
8,185,80,10,8,0,80,1,3.7583
8,186,20,6,1,0,40,0,2.365
8,187,40,2,1,0,20,0,1.0043
8,188,60,2,2,0,40,0,1.1375
8,189,60,6,5,0,40,0,2.4636
8,190,80,8,8,0,60,0,1.8923
8,191,40,4,2,0,20,0,1.6484
8,192,60,8,5,0,60,0,2.1736
8,193,40,10,5,0,40,1,3.3748
8,194,60,6,5,0,60,0,2.4696
8,195,20,4,1,0,20,1,2.6573
8,196,20,2,0,0,40,0,1.8161
8,197,80,8,7,0,60,0,2.4196
8,198,40,4,2,0,40,1,1.873
8,199,80,4,3,0,80,1,1.4284
8,200,20,8,1,0,40,0,2.4266
8,201,80,4,4,0,60,0,1.1197
8,202,20,2,1,0,20,0,1.8113
8,203,80,8,6,0,80,1,1.8457
8,204,20,2,0,0,40,0,1.1257
8,205,60,4,4,0,80,1,1.3095
8,206,80,10,5,0,60,1,2.8956
8,207,80,10,8,0,80,1,2.9798
8,208,60,6,3,0,40,0,1.7007
8,209,80,8,7,0,80,1,2.6247
8,210,20,6,1,0,20,1,1.9832
8,211,60,8,4,0,60,1,2.8939
8,212,20,4,1,0,20,1,1.5358
8,213,60,4,1,0,40,0,3.7123
8,214,80,10,7,0,80,1,2.6032
8,215,80,2,2,0,80,1,1.3506
8,216,60,8,4,0,40,1,4.2667
8,217,20,4,0,0,40,0,1.5229
8,218,40,6,1,0,40,0,2.2823
8,219,40,2,0,0,20,1,2.1276
8,220,40,4,2,0,20,0,1.4985
8,221,20,10,3,0,40,1,2.4051
8,222,40,10,4,0,40,1,2.9122
8,223,20,8,3,0,40,1,2.6517
8,224,60,6,4,0,60,1,2.009
8,225,80,6,6,0,60,0,2.9275
8,226,40,8,2,0,60,0,3.638
8,227,40,10,5,0,40,1,3.0218
8,228,60,8,1,0,60,0,2.6532
8,229,60,2,2,0,40,0,1.9929
8,230,60,6,2,0,60,0,2.3029
8,231,60,2,2,0,60,0,2.0045
8,232,20,10,4,0,20,0,3.5168
8,233,20,6,0,0,20,1,2.0905
8,234,40,10,2,0,60,0,4.5089
8,235,80,2,2,0,80,1,1.2439
8,236,80,10,7,0,80,1,3.4307
8,237,80,8,6,0,60,0,4.1071
8,238,20,2,1,0,40,1,1.6106
8,239,20,2,0,0,40,0,3.1263
8,240,60,4,3,0,60,1,1.9751
8,241,80,10,7,0,60,1,2.5261
8,242,60,10,8,0,60,0,3.0312
8,243,80,4,3,0,80,0,2.0292
8,244,80,6,6,0,80,1,2.1627
8,245,20,4,0,0,20,1,1.4437
8,246,80,6,6,0,60,0,1.8238
8,247,40,10,3,0,60,0,3.3611
8,248,40,2,0,0,40,0,1.3381
8,249,20,10,1,0,40,0,1.5838
8,250,40,10,8,0,40,0,2.9275
8,251,20,10,2,0,20,1,2.1468
8,252,40,10,7,0,40,0,3.7066
8,253,40,6,3,0,40,1,2.1496
8,254,40,6,5,0,40,0,2.0561
8,255,40,4,2,0,40,NaN,0
8,256,20,4,0,0,20,1,1.4007
8,257,80,6,3,0,80,0,2.9028
8,258,80,4,3,0,60,1,1.5561
8,259,20,4,1,0,40,1,1.762
8,260,20,6,0,0,20,1,1.5555
8,261,20,6,1,0,20,1,1.6219
8,262,80,6,6,0,80,1,1.3058
8,263,20,2,0,0,20,1,0.84545
8,264,60,6,4,0,60,1,2.5882
8,265,40,4,0,0,60,0,2.3126
8,266,60,10,7,0,80,1,2.9071
8,267,40,4,1,0,40,1,3.2279
8,268,20,10,2,0,40,1,2.429
8,269,40,2,0,0,60,0,1.1501
8,270,40,4,2,0,60,1,1.8213
8,271,20,2,0,0,40,1,2.1504
8,272,20,8,1,0,20,1,0.19436
8,273,40,8,3,0,60,0,4.0317
8,274,20,2,0,0,40,0,1.8828
8,275,80,2,1,0,60,1,2.3805
8,276,20,8,0,0,40,0,2.208
8,277,20,10,1,0,40,0,2.3094
8,278,80,2,2,0,60,1,3.464
8,279,20,10,1,0,20,1,1.6605
8,280,60,4,4,0,40,0,1.0534
8,281,80,4,4,0,80,1,2.3647
8,282,80,2,2,0,60,1,2.2873
8,283,40,8,3,0,40,1,4.0306
8,284,40,8,4,0,60,1,4.3654
8,285,20,6,3,0,40,1,2.2811
8,286,60,8,3,0,60,0,2.7584
8,287,80,8,7,0,60,0,2.2476
8,288,40,2,2,0,20,0,1.4916
8,289,40,6,2,0,40,NaN,0
8,290,80,6,6,0,80,1,1.1854
8,291,80,10,10,0,60,0,2.3395
8,292,60,6,2,0,60,0,3.1784
8,293,40,8,4,0,40,0,4.0087
8,294,60,4,2,0,80,0,1.7547
8,295,40,8,4,0,40,1,2.8214
8,296,80,4,3,0,80,1,1.6585
8,297,60,2,0,0,80,0,1.5707
8,298,20,8,3,0,20,0,3.8194
8,299,60,10,5,0,80,0,3.2058
8,300,80,4,4,0,80,1,1.1009
8,301,60,8,4,0,80,1,4.4506
8,302,20,6,1,0,20,0,1.4665
8,303,80,6,5,0,60,0,2.0395
8,304,20,8,3,0,20,0,2.6824
8,305,80,4,2,0,60,1,1.6662
8,306,60,8,5,0,80,1,2.4741
8,307,60,10,5,0,80,0,4.8902
8,308,40,8,4,0,40,0,3.1698
8,309,20,4,1,0,20,1,2.1864
8,310,60,10,5,0,60,0,3.05
8,311,20,4,1,0,20,1,3.4768
8,312,80,2,1,0,80,0,1.0498
8,313,40,2,2,0,40,0,1.2303
8,314,20,10,2,0,40,0,4.1531
8,315,80,6,4,0,60,1,2.2915
8,316,60,6,3,0,60,1,2.4495
8,317,60,8,7,0,60,0,2.5811
8,318,60,10,9,0,40,0,1.9011
8,319,40,8,3,0,20,0,2.2247
8,320,40,6,3,0,20,0,2.7509
9,1,40,2,0,1,60,NaN,0
9,2,60,4,2,1,80,0,4.2582
9,3,40,8,5,1,40,0,2.234
9,4,60,2,1,1,80,0,1.57
9,5,40,8,2,1,40,1,3.2167
9,6,80,2,2,1,60,0,3.0743
9,7,20,10,2,1,40,NaN,0
9,8,40,4,1,1,60,0,1.2317
9,9,40,8,4,1,20,0,1.3506
9,10,40,8,6,1,60,1,2.0531
9,11,20,8,1,1,20,1,3.6973
9,12,40,10,7,1,40,0,4.7456
9,13,40,4,1,1,40,0,1.4383
9,14,40,6,1,1,40,0,2.7784
9,15,60,10,7,1,40,1,3.1923
9,16,60,8,5,1,60,0,1.9147
9,17,80,10,6,1,60,0,3.4908
9,18,80,2,1,1,80,0,1.9337
9,19,80,8,7,1,80,1,1.3876
9,20,40,6,4,1,40,0,1.754
9,21,40,2,0,1,20,0,1.3288
9,22,20,8,3,1,40,0,2.1332
9,23,80,2,2,1,60,0,1.0462
9,24,80,10,8,1,80,0,3.0882
9,25,60,2,1,1,40,0,1.1155
9,26,20,6,1,1,40,1,2.3437
9,27,20,8,1,1,20,1,3.0903
9,28,80,4,2,1,60,0,3.8932
9,29,80,8,7,1,80,1,2.4007
9,30,60,4,3,1,40,0,1.4937
9,31,20,4,0,1,20,0,2.0125
9,32,80,6,4,1,60,0,2.3926
9,33,20,2,1,1,20,0,1.9993
9,34,80,10,8,1,60,1,1.9602
9,35,20,6,3,1,20,0,2.2385
9,36,20,10,4,1,20,0,2.1123
9,37,20,10,2,1,20,0,1.6881
9,38,40,2,1,1,40,0,0.75951
9,39,40,4,1,1,40,0,1.9096
9,40,60,4,4,1,80,0,2.8877
9,41,40,4,0,1,40,0,2.7292
9,42,80,6,5,1,80,0,3.8419
9,43,60,6,2,1,60,1,1.233
9,44,40,6,3,1,20,0,2.939
9,45,20,4,1,1,40,0,1.2321
9,46,60,8,5,1,40,0,2.1362
9,47,40,2,1,1,60,0,1.0243
9,48,80,4,3,1,80,0,1.9165
9,49,20,6,2,1,40,0,4.0703
9,50,40,6,0,1,20,1,2.6087
9,51,60,2,1,1,60,0,1.1408
9,52,80,4,3,1,60,0,3.2699
9,53,40,2,1,1,60,0,1.2368
9,54,60,2,0,1,40,0,1.2622
9,55,80,6,6,1,60,1,1.492
9,56,20,8,3,1,20,0,2.3659
9,57,80,6,5,1,60,1,1.6949
9,58,20,2,1,1,20,0,1.0728
9,59,80,8,8,1,80,1,1.1735
9,60,60,2,1,1,60,0,1.6509
9,61,80,2,2,1,80,0,1.3803
9,62,20,6,0,1,40,1,1.265
9,63,20,10,1,1,40,1,1.4275
9,64,80,4,3,1,60,0,1.4215
9,65,40,4,2,1,20,0,1.3486
9,66,20,6,2,1,40,0,2.2755
9,67,80,2,2,1,60,0,1.0551
9,68,60,8,3,1,60,1,2.0398
9,69,60,10,4,1,60,0,1.9241
9,70,80,8,5,1,60,0,1.7993
9,71,40,10,3,1,40,1,4.9823
9,72,80,4,4,1,60,0,1.5271
9,73,20,4,1,1,20,0,1.129
9,74,80,4,4,1,80,0,1.76
9,75,40,2,0,1,20,0,1.8653
9,76,80,8,6,1,80,0,4.2023
9,77,20,10,1,1,40,1,2.1762
9,78,20,2,1,1,40,0,1.1461
9,79,80,6,5,1,60,1,1.2938
9,80,40,8,3,1,40,0,1.7263
9,81,60,4,3,1,60,1,2.5287
9,82,80,10,9,1,80,1,1.7179
9,83,60,10,7,1,40,1,1.785
9,84,20,10,2,1,40,1,3.46
9,85,20,8,3,1,20,0,3.5695
9,86,60,6,4,1,40,0,2.5128
9,87,20,8,3,1,20,0,3.9773
9,88,60,8,5,1,80,0,3.3204
9,89,40,4,1,1,60,0,1.3896
9,90,60,4,2,1,80,0,2.6719
9,91,60,2,1,1,60,0,1.0767
9,92,80,6,6,1,60,1,2.3156
9,93,60,10,4,1,60,1,2.5322
9,94,40,2,1,1,40,0,1.361
9,95,40,10,5,1,20,0,1.9157
9,96,60,8,5,1,80,1,3.7637
9,97,20,2,1,1,20,0,0.77352
9,98,60,4,3,1,40,0,1.0859
9,99,20,4,1,1,20,0,0.8776
9,100,60,8,8,1,80,1,1.3891
9,101,40,4,2,1,60,0,2.726
9,102,60,2,1,1,80,0,1.6743
9,103,40,8,1,1,20,1,1.9751
9,104,60,8,4,1,60,0,2.9064
9,105,60,4,2,1,60,1,2.9547
9,106,20,6,0,1,20,1,4.0084
9,107,20,10,1,1,40,1,2.0191
9,108,40,6,2,1,60,0,1.8818
9,109,20,2,0,1,40,0,0.9597
9,110,20,2,0,1,40,0,1.1785
9,111,40,4,3,1,40,0,1.6074
9,112,80,4,4,1,60,1,1.8483
9,113,40,8,4,1,60,0,4.5374
9,114,60,6,3,1,60,0,1.7
9,115,80,2,1,1,80,0,1.6217
9,116,80,2,1,1,60,0,1.4303
9,117,60,8,7,1,60,0,2.3048
9,118,20,6,0,1,20,1,2.389
9,119,40,6,1,1,40,1,1.8272
9,120,60,10,5,1,80,0,2.4558
9,121,40,10,5,1,40,0,1.9658
9,122,80,8,7,1,80,1,2.4932
9,123,20,4,0,1,20,1,1.5916
9,124,20,8,3,1,40,0,2.1223
9,125,40,10,3,1,20,0,2.4093
9,126,40,10,3,1,40,1,2.6241
9,127,20,2,0,1,40,0,1.4922
9,128,80,6,6,1,80,1,2.3114
9,129,60,10,7,1,60,0,3.6618
9,130,60,2,0,1,60,0,1.31
9,131,40,6,0,1,20,1,1.3265
9,132,40,6,3,1,40,0,2.1317
9,133,20,4,2,1,40,0,1.5344
9,134,60,6,4,1,60,0,2.7184
9,135,20,2,0,1,20,0,0.75752
9,136,60,6,3,1,60,0,1.342
9,137,20,6,2,1,20,0,1.1801
9,138,80,8,6,1,80,0,1.5088
9,139,20,8,1,1,20,1,1.7623
9,140,60,6,3,1,60,0,1.8617
9,141,20,4,1,1,40,0,2.5834
9,142,80,10,10,1,80,1,1.6524
9,143,80,6,5,1,80,0,1.5312
9,144,60,10,6,1,40,1,2.194
9,145,80,8,5,1,80,0,1.549
9,146,40,8,3,1,40,0,3.7095
9,147,60,6,2,1,80,0,2.4494
9,148,60,10,6,1,60,1,2.1614
9,149,80,10,9,1,60,1,1.9487
9,150,80,10,10,1,80,1,1.2816
9,151,40,10,4,1,60,0,2.0094
9,152,60,6,5,1,40,0,3.084
9,153,60,4,2,1,60,0,1.2054
9,154,20,4,1,1,40,0,1.5223
9,155,80,10,8,1,80,0,3.2878
9,156,40,2,1,1,40,0,1.1324
9,157,20,10,3,1,40,1,2.2534
9,158,80,4,4,1,60,0,2.9246
9,159,80,2,2,1,60,0,1.2614
9,160,40,10,5,1,40,0,2.1157
9,161,20,4,1,0,40,0,2.7501
9,162,40,8,5,0,40,1,2.362
9,163,40,2,1,0,20,0,0.82869
9,164,20,6,0,0,20,0,2.3322
9,165,40,4,2,0,20,0,2.0043
9,166,40,6,3,0,20,0,2.2484
9,167,80,2,2,0,60,1,4.0501
9,168,80,2,1,0,60,0,1.4353
9,169,20,2,1,0,20,0,1.6561
9,170,80,8,8,0,60,1,1.4755
9,171,40,6,3,0,20,0,2.0402
9,172,40,6,5,0,60,1,4.9782
9,173,40,2,1,0,40,0,1.05
9,174,60,2,1,0,60,0,0.64558
9,175,60,10,7,0,40,0,1.5632
9,176,80,4,3,0,80,0,1.8692
9,177,40,2,1,0,40,0,2.0327
9,178,60,8,5,0,40,1,2.3217
9,179,20,2,0,0,20,0,0.94845
9,180,60,6,4,0,80,0,2.0962
9,181,80,4,3,0,80,0,1.3358
9,182,40,2,0,0,60,0,0.81686
9,183,80,2,1,0,80,0,1.5018
9,184,60,8,5,0,80,0,2.0064
9,185,80,8,5,0,80,0,1.952
9,186,20,10,2,0,20,NaN,0
9,187,20,8,2,0,20,0,2.4896
9,188,20,6,0,0,40,0,3.4446
9,189,40,10,2,0,40,0,2.3974
9,190,20,2,1,0,20,0,1.542
9,191,60,10,5,0,80,0,2.9479
9,192,80,4,3,0,80,0,1.5244
9,193,40,4,2,0,40,0,2.158
9,194,40,10,2,0,40,0,2.2335
9,195,80,8,7,0,60,1,1.7486
9,196,80,6,6,0,60,1,1.2644
9,197,60,2,2,0,40,0,1.017
9,198,40,6,2,0,40,0,2.5503
9,199,60,10,6,0,60,0,2.0486
9,200,80,6,5,0,60,1,1.6201
9,201,20,4,1,0,20,0,1.1841
9,202,20,4,1,0,20,0,1.8388
9,203,80,6,5,0,60,1,1.5221
9,204,40,4,1,0,60,0,2.2464
9,205,60,6,3,0,40,0,1.898
9,206,80,6,6,0,80,1,1.9559
9,207,40,10,3,0,40,0,2.6193
9,208,20,4,0,0,40,0,2.7783
9,209,20,10,1,0,20,1,2.6413
9,210,80,8,7,0,60,1,2.2085
9,211,60,6,2,0,60,0,1.4455
9,212,80,2,2,0,60,0,0.8333
9,213,20,10,3,0,20,1,2.332
9,214,60,4,3,0,60,0,2.1482
9,215,60,6,4,0,40,0,2.6069
9,216,20,2,0,0,40,0,1.3655
9,217,80,8,6,0,60,1,2.5561
9,218,20,6,2,0,40,0,2.4781
9,219,60,6,4,0,60,0,2.4281
9,220,20,6,0,0,40,1,1.6262
9,221,80,2,1,0,60,0,2.4046
9,222,80,2,2,0,80,0,1.6621
9,223,20,10,5,0,40,0,3.5257
9,224,80,4,4,0,60,1,3.6409
9,225,60,8,5,0,40,0,3.6067
9,226,20,10,2,0,40,0,2.1376
9,227,20,8,1,0,40,1,4.1023
9,228,20,10,7,0,20,0,3.6231
9,229,40,2,1,0,40,0,1.21
9,230,80,4,4,0,80,1,2.6146
9,231,80,10,6,0,80,0,3.4929
9,232,60,8,5,0,60,0,3.2054
9,233,20,6,2,0,40,0,1.7228
9,234,80,10,7,0,80,1,1.7929
9,235,80,4,4,0,60,1,2.4958
9,236,60,4,1,0,80,0,2.0714
9,237,80,4,3,0,60,0,3.3573
9,238,60,10,8,0,60,1,2.0751
9,239,40,10,5,0,40,1,3.8444
9,240,20,2,0,0,20,0,0.99465
9,241,20,8,1,0,40,1,1.5943
9,242,80,10,9,0,60,1,1.5569
9,243,60,10,7,0,60,1,2.354
9,244,80,2,2,0,80,0,1.2864
9,245,20,4,0,0,40,1,3.6894
9,246,60,8,4,0,60,0,1.7968
9,247,40,8,3,0,40,0,1.735
9,248,60,8,5,0,40,0,2.4789
9,249,80,6,6,0,80,1,1.8103
9,250,60,2,1,0,80,0,1.1709
9,251,60,2,0,0,60,0,0.94495
9,252,20,8,2,0,20,0,1.8792
9,253,40,2,1,0,40,0,0.98468
9,254,40,4,1,0,20,0,2.0298
9,255,40,6,3,0,60,0,2.43
9,256,60,10,4,0,60,0,2.0578
9,257,40,6,4,0,40,0,1.691
9,258,20,8,1,0,20,1,2.7997
9,259,20,2,0,0,20,0,0.82513
9,260,40,2,1,0,60,0,0.75108
9,261,40,10,4,0,40,0,1.7359
9,262,80,8,7,0,80,1,2.4652
9,263,40,8,4,0,20,0,1.2482
9,264,60,6,1,0,80,0,2.1096
9,265,60,6,5,0,80,1,2.3617
9,266,60,8,4,0,80,0,4.4947
9,267,20,4,1,0,20,0,4.1554
9,268,80,6,1,0,60,0,1.2665
9,269,40,6,3,0,20,0,1.8172
9,270,60,4,2,0,40,0,1.1686
9,271,20,10,4,0,40,0,0.8014
9,272,60,4,2,0,40,0,0.99133
9,273,60,10,5,0,60,0,1.2472
9,274,40,8,1,0,60,0,3.3834
9,275,40,8,5,0,60,1,1.1146
9,276,60,2,0,0,80,0,1.3476
9,277,80,8,7,0,60,1,1.554
9,278,20,6,1,0,40,1,2.1693
9,279,80,10,8,0,80,0,1.8908
9,280,20,2,0,0,20,0,1.8595
9,281,80,10,10,0,60,1,1.3392
9,282,40,6,1,0,20,1,2.3825
9,283,40,4,2,0,40,0,1.6216
9,284,40,4,1,0,40,0,1.8635
9,285,40,10,4,0,20,0,3.7891
9,286,60,6,4,0,60,1,3.9716
9,287,60,4,2,0,60,0,2.2409
9,288,80,6,5,0,80,1,2.0974
9,289,60,4,2,0,60,0,0.91009
9,290,40,2,0,0,60,0,1.2882
9,291,60,2,2,0,80,0,0.83432
9,292,40,8,2,0,40,NaN,0
9,293,20,6,0,0,20,1,2.5472
9,294,60,2,1,0,60,0,1.2682
9,295,20,10,4,0,40,0,1.4389
9,296,40,4,1,0,40,0,0.80639
9,297,80,8,5,0,80,0,1.5268
9,298,60,10,5,0,60,0,1.5496
9,299,40,8,3,0,20,0,2.254
9,300,80,4,1,0,60,0,1.5585
9,301,40,4,3,0,60,0,2.0406
9,302,80,10,8,0,80,1,1.332
9,303,20,8,2,0,20,0,1.8088
9,304,80,10,8,0,80,1,2.0831
9,305,40,10,3,0,40,1,2.3671
9,306,80,6,4,0,80,0,1.8179
9,307,80,10,8,0,60,1,2.2096
9,308,60,2,1,0,40,0,1.0563
9,309,60,8,5,0,60,0,1.7126
9,310,40,8,3,0,60,0,2.5214
9,311,20,2,0,0,40,0,2.7083
9,312,20,4,0,0,40,0,2.3577
9,313,60,4,2,0,60,0,2.1515
9,314,40,10,6,0,40,0,2.3281
9,315,20,4,1,0,40,0,1.8596
9,316,20,6,4,0,20,0,2.8829
9,317,60,4,3,0,60,0,2.0558
9,318,20,8,0,0,40,0,3.4335
9,319,80,2,2,0,80,0,0.87387
9,320,20,8,1,0,40,1,1.7082
10,1,20,6,0,1,20,1,4.274
10,2,40,2,1,1,60,1,4.2495
10,3,20,10,0,1,40,0,1.5981
10,4,80,6,5,1,60,1,3.2431
10,5,40,10,8,1,40,0,4.4497
10,6,60,8,5,1,60,1,2.4368
10,7,80,6,5,1,80,1,2.2411
10,8,40,10,4,1,40,1,3.2665
10,9,40,6,1,1,40,0,2.5606
10,10,40,6,4,1,40,0,3.5196
10,11,80,2,1,1,80,0,1.2958
10,12,40,4,1,1,20,1,2.9676
10,13,20,10,3,1,40,1,4.0047
10,14,20,4,0,1,40,0,2.2631
10,15,20,10,2,1,20,1,2.4419
10,16,40,2,0,1,60,0,1.2026
10,17,80,6,4,1,80,1,1.7992
10,18,80,8,6,1,80,1,2.4955
10,19,80,10,8,1,80,1,3.3263
10,20,80,4,3,1,60,1,4.1158
10,21,20,2,0,1,20,1,1.8416
10,22,80,2,2,1,60,1,2.3586
10,23,20,4,0,1,20,1,1.3855
10,24,20,8,3,1,20,1,4.5059
10,25,20,8,1,1,40,0,1.6777
10,26,60,10,5,1,60,1,2.6397
10,27,20,2,0,1,40,1,2.6627
10,28,60,6,4,1,60,1,1.9673
10,29,20,2,1,1,20,NaN,0
10,30,20,10,2,1,20,1,1.8246
10,31,80,10,6,1,60,1,2.5607
10,32,60,10,5,1,80,0,3.7063
10,33,40,6,3,1,20,0,3.1684
10,34,20,6,3,1,40,1,2.1151
10,35,60,8,7,1,80,1,2.4561
10,36,80,10,10,1,80,1,1.936
10,37,60,10,8,1,40,0,2.4522
10,38,20,4,0,1,20,1,1.5645
10,39,60,4,3,1,40,0,1.9892
10,40,40,6,5,1,60,1,2.4317
10,41,40,10,4,1,40,1,2.6939
10,42,60,6,2,1,60,0,3.1813
10,43,40,10,0,1,20,1,1.6602
10,44,80,10,7,1,60,1,2.5559
10,45,20,10,0,1,40,0,1.4093
10,46,20,8,2,1,40,1,3.8725
10,47,40,10,2,1,20,1,2.237
10,48,80,10,9,1,80,1,1.7799
10,49,40,6,1,1,20,1,3.0152
10,50,20,6,0,1,40,1,1.9584
10,51,40,8,3,1,40,1,2.9457
10,52,20,10,2,1,20,1,2.5792
10,53,80,10,9,1,80,1,2.3772
10,54,20,10,4,1,40,1,2.3763
10,55,60,6,3,1,80,0,1.9676
10,56,60,2,1,1,40,1,1.3829
10,57,60,8,6,1,60,1,3.3346
10,58,40,6,2,1,40,1,1.9787
10,59,80,2,2,1,60,1,2.0182
10,60,40,8,4,1,60,1,2.1646
10,61,80,2,2,1,60,1,1.5836
10,62,60,2,1,1,60,1,2.1278
10,63,40,4,1,1,40,1,1.9202
10,64,40,2,1,1,40,1,2.2005
10,65,60,4,1,1,40,1,3.9233
10,66,60,10,5,1,60,1,3.1013
10,67,80,6,6,1,60,0,2.0803
10,68,80,4,2,1,80,0,2.2004
10,69,80,10,7,1,60,1,2.3198
10,70,80,8,7,1,60,0,2.5938
10,71,80,4,3,1,80,1,1.8162
10,72,40,6,0,1,40,0,2.5334
10,73,60,4,1,1,80,1,1.8236
10,74,20,6,1,1,40,1,4.0403
10,75,40,6,4,1,40,0,1.3092
10,76,40,10,6,1,20,0,1.5388
10,77,20,6,1,1,40,1,1.7904
10,78,40,2,0,1,40,1,1.7001
10,79,60,2,1,1,80,1,1.8135
10,80,80,8,7,1,80,1,2.7557
10,81,80,6,4,1,60,1,1.7449
10,82,80,6,6,1,60,0,2.7475
10,83,40,10,3,1,60,0,1.9803
10,84,40,4,2,1,40,1,1.3684
10,85,40,4,0,1,40,1,2.2415
10,86,20,4,0,1,20,1,1.8001
10,87,60,4,4,1,80,1,1.139
10,88,80,2,1,1,80,1,1.4832
10,89,40,8,4,1,20,0,2.775
10,90,20,10,2,1,40,1,2.378
10,91,80,4,4,1,80,1,0.97776
10,92,40,8,3,1,40,1,2.9334
10,93,60,2,1,1,80,1,1.6449
10,94,20,6,2,1,20,1,2.7103
10,95,40,2,2,1,40,0,2.0401
10,96,60,4,2,1,40,1,1.5215
10,97,80,4,2,1,80,0,3.1837
10,98,60,4,3,1,40,0,1.2187
10,99,20,6,0,1,20,1,1.4515
10,100,80,8,7,1,60,0,3.1462
10,101,40,8,2,1,60,0,2.1279
10,102,40,8,4,1,40,1,3.3852
10,103,60,6,5,1,60,0,2.7785
10,104,60,10,9,1,60,0,4.5544
10,105,60,2,2,1,60,0,2.3778
10,106,80,4,3,1,80,1,1.4356
10,107,60,4,2,1,60,1,1.6444
10,108,60,8,4,1,60,1,2.2503
10,109,80,2,2,1,80,1,1.1025
10,110,60,10,5,1,60,1,3.0593
10,111,20,4,0,1,40,0,2.078
10,112,80,8,7,1,60,0,2.8927
10,113,20,2,0,1,20,1,1.4978
10,114,20,2,1,1,40,1,1.5784
10,115,80,10,10,1,60,0,1.3954
10,116,20,8,2,1,40,1,2.0819
10,117,40,4,0,1,60,0,2.9587
10,118,40,4,0,1,40,1,2.4663
10,119,20,2,1,1,40,1,1.0661
10,120,20,8,2,1,20,1,2.7698
10,121,60,10,8,1,40,0,1.7531
10,122,40,8,3,1,60,0,4.208
10,123,60,6,4,1,60,1,1.4352
10,124,80,6,5,1,80,1,2.2561
10,125,60,4,3,1,40,0,1.9133
10,126,20,4,1,1,20,1,1.6025
10,127,60,6,3,1,60,1,2.8493
10,128,80,2,2,1,60,1,0.95063
10,129,20,2,1,1,20,1,2.1031
10,130,60,8,4,1,40,1,2.9459
10,131,80,6,5,1,60,1,3.3792
10,132,40,4,2,1,20,0,3.0686
10,133,40,4,3,1,20,0,1.4846
10,134,40,8,2,1,60,0,1.5375
10,135,20,4,0,1,20,1,1.2146
10,136,80,2,1,1,60,1,1.7609
10,137,80,4,4,1,80,1,1.3344
10,138,60,2,1,1,80,1,1.9219
10,139,60,8,5,1,60,1,2.9175
10,140,40,10,5,1,20,0,3.8718
10,141,80,8,7,1,80,1,2.1613
10,142,40,2,1,1,60,1,1.4826
10,143,80,8,5,1,60,1,3.2024
10,144,60,10,4,1,40,1,3.7993
10,145,60,6,3,1,80,0,3.9845
10,146,60,8,4,1,80,1,2.1281
10,147,60,8,5,1,60,1,2.3801
10,148,40,2,2,1,40,1,1.2951
10,149,20,6,2,1,20,1,2.1008
10,150,20,8,0,1,40,0,2.6708
10,151,60,2,1,1,60,1,1.0653
10,152,40,2,0,1,40,1,1.7598
10,153,80,8,6,1,80,1,1.907
10,154,20,4,0,1,20,1,1.9806
10,155,20,2,0,1,20,1,1.029
10,156,60,6,5,1,60,1,3.7326
10,157,20,8,5,1,40,NaN,0
10,158,20,8,1,1,40,0,1.7241
10,159,60,2,0,1,60,0,2.3241
10,160,80,4,4,1,60,1,2.4358
10,161,80,4,2,0,60,1,3.5094
10,162,40,2,1,0,20,1,2.0528
10,163,80,2,0,0,60,1,1.6796
10,164,80,4,3,0,80,1,1.8504
10,165,20,8,1,0,40,0,3.0565
10,166,20,8,0,0,20,1,2.3649
10,167,40,2,1,0,60,1,1.4093
10,168,60,6,4,0,60,1,1.8077
10,169,40,4,3,0,20,0,1.3556
10,170,40,6,1,0,40,1,2.6545
10,171,60,2,1,0,80,1,1.0902
10,172,40,6,3,0,20,0,3.0362
10,173,40,10,6,0,60,1,1.6945
10,174,20,6,1,0,20,1,2.3827
10,175,20,4,0,0,40,0,3.7003
10,176,60,10,4,0,60,0,3.3264
10,177,60,8,4,0,60,1,2.8342
10,178,80,10,8,0,80,1,1.134
10,179,80,6,5,0,80,1,1.6766
10,180,80,8,6,0,80,1,1.5113
10,181,60,10,6,0,80,1,2.1108
10,182,20,6,3,0,40,1,1.9202
10,183,40,8,3,0,40,1,3.3082
10,184,80,8,7,0,60,0,2.5744
10,185,20,8,2,0,40,1,3.4017
10,186,60,8,5,0,40,0,2.3538
10,187,40,8,3,0,40,1,2.6671
10,188,20,8,1,0,40,1,3.8254
10,189,80,4,3,0,80,1,1.4652
10,190,40,10,5,0,40,1,4.5625
10,191,20,4,1,0,40,1,3.0657
10,192,80,8,6,0,60,1,1.631
10,193,60,8,4,0,80,0,3.6721
10,194,60,6,1,0,60,0,3.7582
10,195,60,8,6,0,60,1,2.8535
10,196,80,2,2,0,80,1,1.6016
10,197,80,6,4,0,60,1,2.1029
10,198,80,4,2,0,60,1,1.9461
10,199,80,8,5,0,80,1,3.6857
10,200,80,8,7,0,60,1,4.5543
10,201,80,4,3,0,80,1,1.2492
10,202,40,6,2,0,40,1,3.021
10,203,80,8,6,0,80,1,1.3113
10,204,40,4,3,0,60,1,1.5501
10,205,40,6,2,0,20,1,4.1274
10,206,20,6,2,0,20,1,2.4547
10,207,40,8,4,0,40,1,2.442
10,208,60,8,6,0,60,1,2.0352
10,209,20,10,1,0,20,1,2.7985
10,210,80,4,3,0,60,1,1.6397
10,211,20,2,1,0,20,1,2.0491
10,212,20,10,2,0,20,1,4.4567
10,213,60,10,6,0,60,1,2.9389
10,214,20,2,2,0,20,0,1.3644
10,215,40,8,5,0,40,0,3.8096
10,216,60,4,2,0,40,1,2.1297
10,217,80,2,1,0,80,1,2.3642
10,218,60,4,3,0,40,0,3.9714
10,219,40,4,3,0,40,0,2.672
10,220,80,4,4,0,80,1,1.1667
10,221,40,4,2,0,40,1,1.6259
10,222,80,6,5,0,60,1,1.9447
10,223,60,10,5,0,40,1,3.1851
10,224,60,6,4,0,80,0,3.6218
10,225,40,2,1,0,60,NaN,0
10,226,80,2,2,0,80,1,1.0249
10,227,40,2,2,0,20,0,0.9409
10,228,20,4,0,0,20,1,2.027
10,229,60,6,4,0,60,1,1.9707
10,230,60,2,2,0,40,1,1.3171
10,231,40,4,3,0,40,0,2.944
10,232,60,8,4,0,40,1,3.6366
10,233,20,4,0,0,40,1,2.9271
10,234,80,8,8,0,60,0,2.3553
10,235,80,2,1,0,60,1,1.2353
10,236,40,10,5,0,60,1,1.9609
10,237,60,4,3,0,60,1,1.8429
10,238,80,6,4,0,80,1,2.2435
10,239,20,6,1,0,40,1,3.1456
10,240,80,6,5,0,60,1,1.4322
10,241,40,8,4,0,40,1,1.9992
10,242,40,10,5,0,20,0,1.5721
10,243,60,2,2,0,60,1,0.8862
10,244,20,8,3,0,40,1,2.1266
10,245,60,6,3,0,60,1,2.6278
10,246,40,8,5,0,60,1,1.7895
10,247,60,4,2,0,60,1,1.3529
10,248,20,10,4,0,20,0,4.8775
10,249,40,8,1,0,40,0,1.9685
10,250,40,6,3,0,40,1,2.6841
10,251,60,8,2,0,80,0,2.2703
10,252,80,2,1,0,60,1,1.124
10,253,20,2,0,0,40,1,1.235
10,254,40,2,2,0,40,1,1.5188
10,255,20,6,1,0,20,1,1.8929
10,256,80,8,6,0,80,1,3.3369
10,257,80,10,8,0,60,1,2.3262
10,258,60,6,3,0,80,0,2.9751
10,259,80,10,5,0,80,0,3.5436
10,260,80,2,2,0,60,1,1.4179
10,261,80,10,8,0,80,1,1.937
10,262,40,4,3,0,60,1,1.9774
10,263,80,6,6,0,60,1,3.6372
10,264,40,6,2,0,40,1,4.3044
10,265,80,6,4,0,60,1,1.724
10,266,40,6,5,0,60,1,1.3062
10,267,60,10,7,0,60,1,2.2153
10,268,60,2,1,0,80,1,1.4939
10,269,80,4,3,0,80,1,1.2635
10,270,60,10,7,0,60,1,1.4989
10,271,40,6,3,0,40,1,1.779
10,272,60,10,4,0,60,1,1.3371
10,273,60,4,2,0,60,1,1.1881
10,274,20,10,2,0,40,1,1.4193
10,275,60,8,6,0,40,0,3.0513
10,276,20,4,2,0,20,1,2.4887
10,277,20,6,1,0,20,1,2.2552
10,278,80,6,4,0,80,1,1.3986
10,279,40,2,1,0,40,1,1.0749
10,280,20,2,0,0,20,1,1.1812
10,281,60,4,1,0,60,0,1.6342
10,282,20,2,0,0,40,1,1.7188
10,283,20,8,3,0,40,1,1.6864
10,284,40,10,3,0,60,0,2.2594
10,285,80,10,8,0,80,1,1.6178
10,286,60,2,2,0,80,1,1.2873
10,287,40,2,1,0,60,1,2.0546
10,288,20,4,0,0,20,1,1.4872
10,289,60,4,3,0,60,1,1.0169
10,290,20,10,1,0,40,1,2.283
10,291,20,8,0,0,40,0,2.2477
10,292,80,10,8,0,80,1,1.8484
10,293,40,10,1,0,40,0,2.6205
10,294,60,2,1,0,80,1,0.91238
10,295,60,6,5,0,40,0,2.5563
10,296,20,6,2,0,20,1,1.4911
10,297,20,2,0,0,40,1,2.1079
10,298,20,2,0,0,40,1,0.84174
10,299,40,4,1,0,20,1,1.605
10,300,20,10,1,0,20,1,3.1814
10,301,80,10,8,0,60,1,3.6246
10,302,60,4,2,0,80,0,4.4516
10,303,20,4,0,0,20,1,1.214
10,304,40,4,1,0,20,1,1.3333
10,305,20,10,1,0,40,NaN,0
10,306,60,2,2,0,60,1,0.966
10,307,40,10,5,0,40,0,1.6999
10,308,60,2,1,0,40,1,1.186
10,309,60,6,2,0,60,0,1.4955
10,310,20,2,0,0,20,1,1.6225
10,311,80,2,2,0,60,1,1.2095
10,312,60,10,6,0,40,1,3.6818
10,313,40,10,3,0,20,1,2.3344
10,314,20,4,0,0,40,0,2.704
10,315,80,10,10,0,60,0,2.0816
10,316,20,8,0,0,20,1,1.3859
10,317,20,6,1,0,40,1,3.253
10,318,40,2,1,0,40,1,1.0138
10,319,40,8,2,0,20,1,2.2036
10,320,20,10,1,0,20,1,1.9901